File: 01_Data/Polyisocyanurate_Spray_Foam_Insulation/STA/N2/10K_min/Polyisocyanurate_Spray_Foam_Insulation_STA_N2_10KData_241029_R2.csv
Temp/C,Time/min,Mass loss(subtr.)/mg,DSC(subtr.)/(mW/mg),Sensit./(uV/mW)
26.064,10.005,-0.0303,0.004257027,1.00325
26.664,10.7793,-0.03284143,0.03551744,1.00358
27.264,10.9737,-0.03333588,0.0577268,1.0039
27.864,11.11745,-0.03186186,0.07733976,1.00422
28.464,11.23915,-0.03426002,0.09475859,1.00454
29.064,11.34606,-0.03101614,0.10678,1.00486
29.664,11.44361,-0.03167294,0.11776,1.00518
30.264,11.53478,-0.03323566,0.13068,1.0055
30.864,11.62155,-0.03326628,0.13987,1.00581
31.464,11.7051,-0.03227053,0.14608,1.00612
32.064,11.78548,-0.03363687,0.15542,1.00643
32.664,11.86305,-0.03434942,0.16078,1.00674
33.264,11.93862,-0.03270857,0.16657,1.00705
33.864,12.01284,-0.03305848,0.17061,1.00735
34.464,12.08593,-0.0330271,0.17561,1.00765
35.064,12.15799,-0.03326578,0.18216,1.00796
35.664,12.22873,-0.03200449,0.18777,1.00826
36.264,12.29884,-0.03206993,0.19044,1.00855
36.864,12.36816,-0.03317288,0.19501,1.00885
37.464,12.43733,-0.03360541,0.19763,1.00914
38.064,12.50573,-0.03192718,0.20132,1.00943
38.664,12.57417,-0.03337371,0.20353,1.00972
39.264,12.64177,-0.03339173,0.20693,1.01001
39.864,12.70944,-0.03398189,0.20806,1.0103
40.464,12.77639,-0.03377623,0.20937,1.01058
41.064,12.84356,-0.03416188,0.21336,1.01087
41.664,12.91005,-0.03338029,0.21407,1.01115
42.264,12.97648,-0.03462089,0.21875,1.01143
42.864,13.04233,-0.03476265,0.21935,1.0117
43.464,13.10815,-0.03468545,0.22185,1.01198
44.064,13.17375,-0.03600552,0.22243,1.01225
44.664,13.2388,-0.03601284,0.22379,1.01253
45.264,13.30407,-0.03496805,0.225,1.0128
45.864,13.36924,-0.03468727,0.22691,1.01307
46.464,13.43454,-0.03600999,0.23029,1.01333
47.064,13.4993,-0.03568051,0.23081,1.0136
47.664,13.56357,-0.03581578,0.23227,1.01386
48.264,13.62764,-0.03601968,0.23347,1.01412
48.864,13.69146,-0.03602269,0.23498,1.01438
49.464,13.75553,-0.03601107,0.23684,1.01464
50.064,13.81962,-0.03472829,0.23837,1.01489
50.664,13.88366,-0.03601022,0.23718,1.01515
51.264,13.94724,-0.03600896,0.23903,1.0154
51.864,14.01054,-0.0357245,0.24202,1.01565
52.464,14.07355,-0.03731993,0.24088,1.0159
53.064,14.13622,-0.03732588,0.24282,1.01615
53.664,14.19916,-0.03600838,0.24043,1.01639
54.264,14.26172,-0.03733,0.24129,1.01663
54.864,14.32409,-0.03733012,0.24252,1.01688
55.464,14.38664,-0.03736086,0.24094,1.01712
56.064,14.44872,-0.03732599,0.24238,1.01735
56.664,14.51084,-0.03864176,0.24229,1.01759
57.264,14.57253,-0.03829159,0.24232,1.01782
57.864,14.63452,-0.03865807,0.24058,1.01806
58.464,14.69633,-0.03997,0.24007,1.01829
59.064,14.75821,-0.03976659,0.24134,1.01852
59.664,14.81972,-0.0386499,0.24014,1.01874
60.264,14.88114,-0.03997007,0.23952,1.01897
60.864,14.94231,-0.03995995,0.23852,1.01919
61.464,15.00298,-0.03863627,0.2374,1.01941
62.064,15.06374,-0.03862304,0.23679,1.01963
62.664,15.12445,-0.03996,0.23433,1.01985
63.264,15.18558,-0.03929897,0.23294,1.02007
63.864,15.2464,-0.04062178,0.23218,1.02028
64.464,15.30719,-0.03996999,0.23177,1.0205
65.064,15.3678,-0.04128451,0.23042,1.02071
65.664,15.42816,-0.03993928,0.23152,1.02092
66.264,15.48858,-0.04011121,0.23034,1.02113
66.864,15.54878,-0.03996,0.22973,1.02133
67.464,15.60911,-0.03996,0.22901,1.02154
68.064,15.66919,-0.03962238,0.22737,1.02174
68.664,15.72908,-0.04129126,0.22618,1.02194
69.264,15.78904,-0.03997636,0.22675,1.02214
69.864,15.84908,-0.03997,0.22449,1.02233
70.464,15.90901,-0.04125972,0.22473,1.02253
71.064,15.9688,-0.03997402,0.22394,1.02272
71.664,16.02836,-0.0399393,0.22468,1.02291
72.264,16.08773,-0.04061878,0.22366,1.0231
72.864,16.1474,-0.03990243,0.22388,1.02329
73.464,16.2072,-0.04128,0.22242,1.02348
74.064,16.26743,-0.04138266,0.22194,1.02366
74.664,16.3275,-0.0426,0.22315,1.02385
75.264,16.38739,-0.04129657,0.22282,1.02403
75.864,16.44703,-0.04128,0.22174,1.02421
76.464,16.50658,-0.04133457,0.22242,1.02438
77.064,16.56606,-0.04129,0.22156,1.02456
77.664,16.6252,-0.04129,0.2241,1.02473
78.264,16.68472,-0.04227009,0.22106,1.02491
78.864,16.74422,-0.0426,0.22301,1.02508
79.464,16.80404,-0.04253508,0.22397,1.02524
80.064,16.86377,-0.0426,0.22585,1.02541
80.664,16.92312,-0.0426,0.22426,1.02558
81.264,16.98245,-0.04328507,0.22601,1.02574
81.864,17.04177,-0.04359049,0.22518,1.0259
82.464,17.10118,-0.04393457,0.22822,1.02606
83.064,17.16051,-0.04392069,0.22757,1.02622
83.664,17.21997,-0.04392,0.22754,1.02638
84.264,17.27919,-0.04392,0.22728,1.02653
84.864,17.33872,-0.04390448,0.22996,1.02668
85.464,17.3982,-0.04393244,0.22826,1.02684
86.064,17.45743,-0.04391,0.23083,1.02698
86.664,17.51661,-0.04391331,0.23026,1.02713
87.264,17.57569,-0.04523,0.23126,1.02728
87.864,17.63477,-0.04523,0.23299,1.02742
88.464,17.69392,-0.04523,0.23221,1.02757
89.064,17.75271,-0.04523,0.2337,1.02771
89.664,17.81182,-0.04523023,0.23193,1.02785
90.264,17.87079,-0.04432595,0.23301,1.02798
90.864,17.93004,-0.04524,0.23565,1.02812
91.464,17.98908,-0.04592545,0.23554,1.02825
92.064,18.04782,-0.0459,0.23635,1.02838
92.664,18.10662,-0.04589877,0.23748,1.02851
93.264,18.16476,-0.04655,0.23685,1.02864
93.864,18.22355,-0.04668168,0.23702,1.02877
94.464,18.28247,-0.0465499,0.24076,1.02889
95.064,18.34166,-0.04653408,0.24156,1.02902
95.664,18.4006,-0.04919004,0.23988,1.02914
96.264,18.45904,-0.04852942,0.24177,1.02926
96.864,18.51756,-0.0482,0.24217,1.02938
97.464,18.576,-0.048201,0.24326,1.0295
98.064,18.63445,-0.04787,0.24294,1.02961
98.664,18.69289,-0.04786865,0.24465,1.02972
99.264,18.75159,-0.04919001,0.24622,1.02983
99.864,18.81012,-0.05017015,0.2456,1.02994
100.464,18.86868,-0.05050141,0.24625,1.03005
101.064,18.9271,-0.0518194,0.24596,1.03016
101.664,18.98541,-0.05181982,0.2457,1.03026
102.264,19.04384,-0.05182055,0.24873,1.03037
102.864,19.10215,-0.05182,0.24771,1.03047
103.464,19.16034,-0.05182099,0.2494,1.03057
104.064,19.21853,-0.05314001,0.2489,1.03066
104.664,19.27672,-0.05314,0.24931,1.03076
105.264,19.33497,-0.05314,0.25084,1.03085
105.864,19.39286,-0.05420869,0.25107,1.03095
106.464,19.45116,-0.05446,0.252,1.03104
107.064,19.50937,-0.05446,0.25151,1.03113
107.664,19.56774,-0.05445985,0.25311,1.03121
108.264,19.62599,-0.05577026,0.25213,1.0313
108.864,19.68425,-0.05577,0.25487,1.03138
109.464,19.74256,-0.05577,0.25621,1.03147
110.064,19.80086,-0.05577,0.25787,1.03155
110.664,19.859,-0.05577099,0.25722,1.03163
111.264,19.91728,-0.05708607,0.25859,1.0317
111.864,19.97543,-0.05810084,0.26022,1.03178
112.464,20.03342,-0.05841,0.26064,1.03185
113.064,20.09147,-0.05950228,0.26226,1.03193
113.664,20.1494,-0.05973068,0.26116,1.032
114.264,20.20743,-0.06071001,0.2621,1.03207
114.864,20.26559,-0.06071,0.26164,1.03213
115.464,20.32383,-0.06071,0.26375,1.0322
116.064,20.38191,-0.06038753,0.26376,1.03226
116.664,20.43998,-0.06038913,0.26572,1.03233
117.264,20.49797,-0.06072007,0.26398,1.03239
117.864,20.55597,-0.06072,0.26563,1.03245
118.464,20.61412,-0.0620402,0.2661,1.0325
119.064,20.67215,-0.06335227,0.26643,1.03256
119.664,20.73024,-0.06465984,0.26621,1.03261
120.264,20.78816,-0.06466,0.26699,1.03266
120.864,20.84635,-0.06578497,0.26971,1.03271
121.464,20.90434,-0.06598,0.26828,1.03276
122.064,20.96228,-0.06729514,0.26878,1.03281
122.664,21.02018,-0.06763012,0.26992,1.03286
123.264,21.07797,-0.06732845,0.26882,1.0329
123.864,21.13596,-0.0673,0.27014,1.03294
124.464,21.19379,-0.06729801,0.27149,1.03298
125.064,21.25172,-0.06861989,0.26976,1.03302
125.664,21.30958,-0.06894999,0.27151,1.03306
126.264,21.36749,-0.06892117,0.2739,1.0331
126.864,21.42506,-0.07027015,0.2764,1.03313
127.464,21.48311,-0.07159002,0.27381,1.03316
128.064,21.54091,-0.07163685,0.27576,1.03319
128.664,21.59869,-0.07191,0.27548,1.03322
129.264,21.65642,-0.07191062,0.27635,1.03325
129.864,21.71402,-0.07388011,0.27698,1.03328
130.464,21.77165,-0.07387999,0.27732,1.0333
131.064,21.82924,-0.07520402,0.27698,1.03332
131.664,21.88695,-0.07552975,0.27854,1.03334
132.264,21.94482,-0.07685003,0.27954,1.03336
132.864,22.00247,-0.07552985,0.27944,1.03338
133.464,22.06008,-0.07553,0.28141,1.0334
134.064,22.11756,-0.07670442,0.28121,1.03341
134.664,22.17501,-0.07684976,0.2831,1.03342
135.264,22.23267,-0.07817,0.28336,1.03343
135.864,22.29014,-0.07817002,0.28101,1.03344
136.464,22.3476,-0.07948944,0.28538,1.03345
137.064,22.40502,-0.07916,0.28477,1.03346
137.664,22.4625,-0.07916,0.28515,1.03346
138.264,22.52001,-0.07916002,0.2859,1.03347
138.864,22.57749,-0.08169218,0.28623,1.03347
139.464,22.63486,-0.0818,0.28534,1.03347
140.064,22.69228,-0.0818,0.2879,1.03347
140.664,22.74957,-0.0818,0.2876,1.03346
141.264,22.80697,-0.08296431,0.28739,1.03346
141.864,22.86445,-0.08310885,0.28674,1.03345
142.464,22.92105,-0.08442002,0.28904,1.03344
143.064,22.97816,-0.08475257,0.28823,1.03343
143.664,23.03541,-0.08545838,0.28776,1.03342
144.264,23.09316,-0.08639815,0.28925,1.03341
144.864,23.15139,-0.08705999,0.29064,1.03339
145.464,23.20895,-0.08706026,0.28969,1.03338
146.064,23.26639,-0.08889611,0.29155,1.03336
146.664,23.32365,-0.08937,0.29253,1.03334
147.264,23.38089,-0.08937001,0.29352,1.03332
147.864,23.43802,-0.08805647,0.29552,1.0333
148.464,23.49525,-0.08805071,0.29497,1.03327
149.064,23.55245,-0.08969938,0.29404,1.03325
149.664,23.60968,-0.09232008,0.29628,1.03322
150.264,23.66695,-0.09234,0.2956,1.03319
150.864,23.72424,-0.09234,0.29744,1.03316
151.464,23.78143,-0.09234,0.29726,1.03313
152.064,23.83875,-0.09234,0.29997,1.0331
152.664,23.89603,-0.09330659,0.30054,1.03306
153.264,23.95303,-0.09331999,0.29907,1.03303
153.864,24.01025,-0.09397817,0.30294,1.03299
154.464,24.06739,-0.09496001,0.30214,1.03295
155.064,24.12466,-0.09595341,0.30469,1.03291
155.664,24.18206,-0.09595,0.30391,1.03286
156.264,24.23915,-0.09729116,0.30617,1.03282
156.864,24.29611,-0.09727,0.30826,1.03277
157.464,24.35322,-0.0975932,0.30761,1.03273
158.064,24.41047,-0.09891983,0.30792,1.03268
158.664,24.46785,-0.09892,0.30886,1.03263
159.264,24.52505,-0.10024,0.30964,1.03257
159.864,24.58242,-0.10156,0.31254,1.03252
160.464,24.63963,-0.10156,0.31121,1.03246
161.064,24.69691,-0.10156,0.31347,1.03241
161.664,24.75409,-0.10188,0.31481,1.03235
162.264,24.81119,-0.10191,0.31504,1.03229
162.864,24.86849,-0.10367,0.31506,1.03223
163.464,24.92552,-0.10419,0.31715,1.03217
164.064,24.98226,-0.10419,0.31872,1.0321
164.664,25.03917,-0.10386,0.31963,1.03204
165.264,25.09612,-0.10517,0.31892,1.03197
165.864,25.15304,-0.10517,0.32082,1.0319
166.464,25.21064,-0.10647,0.32128,1.03183
167.064,25.26777,-0.10781,0.3236,1.03176
167.664,25.32494,-0.10781,0.32289,1.03168
168.264,25.38195,-0.10847,0.3233,1.03161
168.864,25.43905,-0.10847,0.32512,1.03153
169.464,25.49609,-0.10847,0.32651,1.03145
170.064,25.55316,-0.10978,0.3267,1.03137
170.664,25.61036,-0.10979,0.32664,1.03129
171.264,25.66759,-0.11228,0.32708,1.03121
171.864,25.72474,-0.11242,0.32985,1.03113
172.464,25.78187,-0.1124,0.32883,1.03104
173.064,25.83878,-0.11341,0.33053,1.03095
173.664,25.89545,-0.11473,0.32812,1.03086
174.264,25.95241,-0.11604,0.33136,1.03077
174.864,26.00941,-0.11604,0.33219,1.03068
175.464,26.06641,-0.11736,0.33372,1.03059
176.064,26.1234,-0.1173,0.33349,1.03049
176.664,26.18033,-0.11868,0.33534,1.0304
177.264,26.23748,-0.11999,0.33452,1.0303
177.864,26.29478,-0.12,0.3356,1.0302
178.464,26.35188,-0.12,0.33593,1.0301
179.064,26.40919,-0.12164,0.33552,1.03
179.664,26.46617,-0.12295,0.33719,1.0299
180.264,26.52324,-0.12395,0.33969,1.02979
180.864,26.5802,-0.12527,0.33992,1.02968
181.464,26.63717,-0.12659,0.33928,1.02958
182.064,26.69415,-0.12819,0.34255,1.02947
182.664,26.75116,-0.12823,0.34242,1.02936
183.264,26.80812,-0.12955,0.34302,1.02924
183.864,26.86514,-0.13087,0.34634,1.02913
184.464,26.92219,-0.13171,0.34663,1.02901
185.064,26.97917,-0.13219,0.34724,1.0289
185.664,27.0361,-0.1335,0.34546,1.02878
186.264,27.09294,-0.13482,0.34769,1.02866
186.864,27.14981,-0.13744,0.34898,1.02854
187.464,27.20672,-0.13875,0.34971,1.02842
188.064,27.26361,-0.14003,0.35046,1.02829
188.664,27.32049,-0.14008,0.35102,1.02817
189.264,27.37733,-0.1414,0.35263,1.02804
189.864,27.43419,-0.14272,0.35243,1.02791
190.464,27.49093,-0.14404,0.35449,1.02778
191.064,27.54781,-0.14667,0.35596,1.02765
191.664,27.6046,-0.14799,0.3544,1.02752
192.264,27.66145,-0.14931,0.35813,1.02739
192.864,27.71816,-0.15071,0.35816,1.02725
193.464,27.77488,-0.15237,0.36156,1.02711
194.064,27.83177,-0.15337,0.36187,1.02698
194.664,27.88865,-0.15616,0.36302,1.02684
195.264,27.94562,-0.15799,0.36127,1.0267
195.864,28.00236,-0.15984,0.36323,1.02655
196.464,28.05909,-0.16127,0.36315,1.02641
197.064,28.11585,-0.16239,0.36533,1.02626
197.664,28.17278,-0.16366,0.36534,1.02612
198.264,28.22965,-0.16563,0.36765,1.02597
198.864,28.28655,-0.16719,0.37058,1.02582
199.464,28.34333,-0.16815,0.3704,1.02567
200.064,28.40001,-0.1705,0.37198,1.02552
200.664,28.45673,-0.17192,0.37383,1.02536
201.264,28.51369,-0.1742,0.37536,1.02521
201.864,28.57056,-0.17714,0.37604,1.02505
202.464,28.62743,-0.17876,0.37741,1.02489
203.064,28.6842,-0.18157,0.37842,1.02474
203.664,28.74083,-0.18293,0.38177,1.02457
204.264,28.79767,-0.18424,0.38264,1.02441
204.864,28.8545,-0.18709,0.38516,1.02425
205.464,28.91151,-0.18855,0.38596,1.02408
206.064,28.96818,-0.18994,0.38656,1.02392
206.664,29.02473,-0.19278,0.3891,1.02375
207.264,29.08153,-0.19559,0.39019,1.02358
207.864,29.1385,-0.19833,0.38967,1.02341
208.464,29.1956,-0.19979,0.39262,1.02324
209.064,29.25228,-0.20112,0.39399,1.02307
209.664,29.30914,-0.20392,0.39517,1.02289
210.264,29.36573,-0.20529,0.39675,1.02272
210.864,29.42272,-0.20707,0.39803,1.02254
211.464,29.4797,-0.21079,0.39859,1.02236
212.064,29.53638,-0.21322,0.40088,1.02218
212.664,29.59326,-0.21534,0.40211,1.022
213.264,29.6499,-0.21836,0.40126,1.02182
213.864,29.70709,-0.21968,0.40317,1.02164
214.464,29.76398,-0.22177,0.40381,1.02145
215.064,29.82108,-0.22405,0.40506,1.02127
215.664,29.87788,-0.22701,0.40496,1.02108
216.264,29.9346,-0.22854,0.40583,1.02089
216.864,29.99133,-0.23136,0.40443,1.0207
217.464,30.04806,-0.23446,0.40724,1.02051
218.064,30.10479,-0.23692,0.40698,1.02031
218.664,30.16155,-0.2384,0.4065,1.02012
219.264,30.21845,-0.2411,0.40592,1.01992
219.864,30.27519,-0.24331,0.40702,1.01973
220.464,30.33196,-0.24559,0.40476,1.01953
221.064,30.38879,-0.24741,0.40549,1.01933
221.664,30.44558,-0.25099,0.40523,1.01913
222.264,30.50228,-0.25234,0.40474,1.01893
222.864,30.5589,-0.25518,0.40638,1.01872
223.464,30.61556,-0.25666,0.40374,1.01852
224.064,30.67229,-0.25668,0.40408,1.01831
224.664,30.72896,-0.25863,0.4032,1.01811
225.264,30.78569,-0.26227,0.4028,1.0179
225.864,30.84203,-0.26567,0.39933,1.01769
226.464,30.89861,-0.267,0.40079,1.01748
227.064,30.95526,-0.26832,0.39846,1.01726
227.664,31.01181,-0.2697,0.39906,1.01705
228.264,31.06878,-0.27108,0.39941,1.01683
228.864,31.12524,-0.27274,0.39928,1.01662
229.464,31.18153,-0.27513,0.39756,1.0164
230.064,31.23802,-0.27641,0.39714,1.01618
230.664,31.29455,-0.27644,0.39613,1.01596
231.264,31.35106,-0.27994,0.3945,1.01574
231.864,31.40801,-0.28203,0.39534,1.01552
232.464,31.46471,-0.28336,0.39523,1.01529
233.064,31.52135,-0.28499,0.39527,1.01507
233.664,31.57776,-0.28659,0.394,1.01484
234.264,31.63435,-0.28917,0.39396,1.01461
234.864,31.69092,-0.29081,0.39265,1.01439
235.464,31.74746,-0.29081,0.39288,1.01416
236.064,31.80422,-0.29112,0.39191,1.01392
236.664,31.86084,-0.29411,0.39214,1.01369
237.264,31.91759,-0.29575,0.38992,1.01346
237.864,31.97431,-0.29844,0.39135,1.01322
238.464,32.03089,-0.29982,0.39145,1.01299
239.064,32.08761,-0.30115,0.39031,1.01275
239.664,32.14438,-0.30177,0.39134,1.01251
240.264,32.20108,-0.30454,0.39198,1.01227
240.864,32.25792,-0.30548,0.39208,1.01203
241.464,32.31459,-0.30608,0.39223,1.01179
242.064,32.37129,-0.30739,0.3903,1.01154
242.664,32.42795,-0.30871,0.39056,1.0113
243.264,32.48462,-0.31003,0.39188,1.01105
243.864,32.54121,-0.3108,0.39382,1.0108
244.464,32.59794,-0.31135,0.39254,1.01056
245.064,32.65461,-0.312,0.39351,1.01031
245.664,32.71131,-0.31332,0.39355,1.01005
246.264,32.76804,-0.31596,0.39435,1.0098
246.864,32.82485,-0.3166,0.39436,1.00955
247.464,32.88171,-0.31728,0.39482,1.00929
248.064,32.93851,-0.31859,0.39664,1.00904
248.664,32.99536,-0.31859,0.39605,1.00878
249.264,33.0522,-0.31991,0.39654,1.00852
249.864,33.109,-0.31991,0.39821,1.00826
250.464,33.16592,-0.32122,0.39675,1.008
251.064,33.22299,-0.32117,0.39771,1.00774
251.664,33.27984,-0.32255,0.39831,1.00748
252.264,33.33671,-0.3231,0.39932,1.00722
252.864,33.39357,-0.32386,0.40039,1.00695
253.464,33.45044,-0.32518,0.40167,1.00668
254.064,33.50737,-0.32518,0.40296,1.00642
254.664,33.56422,-0.32649,0.4025,1.00615
255.264,33.62114,-0.3286,0.40425,1.00588
255.864,33.67808,-0.329,0.40301,1.00561
256.464,33.73503,-0.33012,0.40609,1.00534
257.064,33.79197,-0.33007,0.40621,1.00506
257.664,33.84857,-0.33144,0.40725,1.00479
258.264,33.90547,-0.33276,0.40815,1.00451
258.864,33.96238,-0.33276,0.41088,1.00424
259.464,34.01935,-0.33407,0.4117,1.00396
260.064,34.07654,-0.33424,0.41075,1.00368
260.664,34.13345,-0.33557,0.41136,1.0034
261.264,34.19039,-0.33671,0.41205,1.00312
261.864,34.24726,-0.33803,0.41394,1.00284
262.464,34.30422,-0.33934,0.4148,1.00255
263.064,34.36119,-0.34099,0.41518,1.00227
263.664,34.4181,-0.3422,0.41773,1.00198
264.264,34.47508,-0.34231,0.4192,1.00169
264.864,34.53211,-0.34363,0.41956,1.00141
265.464,34.58907,-0.34363,0.42055,1.00112
266.064,34.64617,-0.34494,0.42069,1.00083
266.664,34.70336,-0.34626,0.42351,1.00054
267.264,34.76037,-0.34758,0.42347,1.00024
267.864,34.81754,-0.34892,0.42475,0.99995
268.464,34.87468,-0.35021,0.42743,0.99966
269.064,34.93178,-0.35284,0.42988,0.99936
269.664,34.98916,-0.35417,0.43014,0.99906
270.264,35.04629,-0.35597,0.43034,0.99877
270.864,35.10343,-0.35676,0.43304,0.99847
271.464,35.16057,-0.35811,0.43518,0.99817
272.064,35.21774,-0.35978,0.43835,0.99787
272.664,35.27495,-0.3613,0.44214,0.99756
273.264,35.33215,-0.36224,0.44521,0.99726
273.864,35.38938,-0.3662,0.44803,0.99696
274.464,35.4467,-0.36755,0.45066,0.99665
275.064,35.50404,-0.3691,0.4526,0.99634
275.664,35.56132,-0.37161,0.4554,0.99604
276.264,35.61861,-0.37313,0.4572,0.99573
276.864,35.67584,-0.37451,0.46107,0.99542
277.464,35.73302,-0.37733,0.46549,0.99511
278.064,35.79022,-0.37865,0.46893,0.9948
278.664,35.84754,-0.38151,0.47489,0.99448
279.264,35.90488,-0.38401,0.47723,0.99417
279.864,35.96238,-0.38687,0.47937,0.99385
280.464,36.01969,-0.39004,0.48417,0.99354
281.064,36.07711,-0.39302,0.49032,0.99322
281.664,36.13452,-0.39619,0.49113,0.9929
282.264,36.19194,-0.39817,0.49616,0.99258
282.864,36.24933,-0.40048,0.50196,0.99226
283.464,36.30655,-0.40356,0.50579,0.99194
284.064,36.36379,-0.40666,0.5091,0.99162
284.664,36.42113,-0.40942,0.51387,0.9913
285.264,36.47819,-0.41316,0.51974,0.99097
285.864,36.53545,-0.41502,0.52331,0.99065
286.464,36.59252,-0.41868,0.52765,0.99032
287.064,36.6499,-0.42255,0.53278,0.98999
287.664,36.70729,-0.42603,0.5373,0.98967
288.264,36.76447,-0.43015,0.53994,0.98934
288.864,36.82202,-0.43295,0.54388,0.98901
289.464,36.87935,-0.43697,0.5482,0.98867
290.064,36.93665,-0.44169,0.55389,0.98834
290.664,36.9939,-0.44565,0.55515,0.98801
291.264,37.05116,-0.44978,0.56295,0.98767
291.864,37.10852,-0.45368,0.56323,0.98734
292.464,37.1659,-0.45722,0.56726,0.987
293.064,37.223,-0.46228,0.57206,0.98667
293.664,37.28011,-0.46681,0.57394,0.98633
294.264,37.33697,-0.47152,0.57559,0.98599
294.864,37.39424,-0.477,0.57886,0.98565
295.464,37.45151,-0.48057,0.58112,0.98531
296.064,37.50897,-0.48625,0.58493,0.98497
296.664,37.5664,-0.49083,0.58615,0.98462
297.264,37.62349,-0.49531,0.5881,0.98428
297.864,37.68059,-0.50061,0.59063,0.98393
298.464,37.73768,-0.50674,0.59284,0.98359
299.064,37.79474,-0.51342,0.59388,0.98324
299.664,37.85195,-0.51744,0.59615,0.98289
300.264,37.90919,-0.52503,0.59651,0.98254
300.864,37.96618,-0.53142,0.59914,0.98219
301.464,38.02314,-0.53676,0.60022,0.98184
302.064,38.08023,-0.54145,0.60171,0.98149
302.664,38.13734,-0.54991,0.60025,0.98114
303.264,38.19483,-0.55571,0.60013,0.98079
303.864,38.25201,-0.56232,0.60155,0.98043
304.464,38.30916,-0.56887,0.6036,0.98008
305.064,38.36617,-0.57442,0.60206,0.97972
305.664,38.42353,-0.5823,0.59779,0.97936
306.264,38.48075,-0.58924,0.59621,0.979
306.864,38.53754,-0.59567,0.59521,0.97865
307.464,38.59492,-0.60215,0.59534,0.97829
308.064,38.6521,-0.60946,0.59458,0.97792
308.664,38.70942,-0.61636,0.59322,0.97756
309.264,38.76704,-0.62435,0.59152,0.9772
309.864,38.82442,-0.63295,0.59029,0.97684
310.464,38.8818,-0.64154,0.58622,0.97647
311.064,38.93909,-0.64891,0.58458,0.97611
311.664,38.99646,-0.6568,0.58246,0.97574
312.264,39.05366,-0.66397,0.5822,0.97537
312.864,39.11085,-0.67206,0.58079,0.97501
313.464,39.16814,-0.68104,0.57883,0.97464
314.064,39.22544,-0.69168,0.57621,0.97427
314.664,39.28285,-0.69894,0.57244,0.9739
315.264,39.34027,-0.70807,0.56987,0.97352
315.864,39.39758,-0.71826,0.56833,0.97315
316.464,39.45495,-0.72775,0.56557,0.97278
317.064,39.5124,-0.73677,0.562,0.9724
317.664,39.56975,-0.74616,0.55998,0.97203
318.264,39.62726,-0.75579,0.55577,0.97165
318.864,39.68474,-0.76485,0.55383,0.97128
319.464,39.74211,-0.77557,0.55191,0.9709
320.064,39.79939,-0.78438,0.55085,0.97052
320.664,39.85663,-0.79315,0.54695,0.97014
321.264,39.91393,-0.8029,0.54531,0.96976
321.864,39.97122,-0.81379,0.54185,0.96938
322.464,40.02859,-0.8246,0.53708,0.969
323.064,40.08608,-0.8353,0.53492,0.96862
323.664,40.14358,-0.84826,0.53283,0.96823
324.264,40.201,-0.85799,0.53089,0.96785
324.864,40.25846,-0.86966,0.52845,0.96746
325.464,40.31574,-0.88046,0.52552,0.96708
326.064,40.373,-0.89261,0.52201,0.96669
326.664,40.42996,-0.90537,0.51833,0.9663
327.264,40.48731,-0.91634,0.51634,0.96591
327.864,40.54472,-0.93045,0.51213,0.96552
328.464,40.60234,-0.94336,0.51074,0.96513
329.064,40.6598,-0.95694,0.50773,0.96474
329.664,40.71721,-0.97113,0.50449,0.96435
330.264,40.77473,-0.98477,0.50189,0.96396
330.864,40.83207,-0.99829,0.49697,0.96357
331.464,40.8895,-1.01313,0.49381,0.96317
332.064,40.94698,-1.02754,0.48878,0.96278
332.664,41.00437,-1.04441,0.48776,0.96238
333.264,41.0619,-1.05815,0.4837,0.96198
333.864,41.11931,-1.0728,0.4795,0.96159
334.464,41.1767,-1.09165,0.476,0.96119
335.064,41.23424,-1.10609,0.47044,0.96079
335.664,41.29157,-1.12248,0.46677,0.96039
336.264,41.34884,-1.1395,0.46405,0.95999
336.864,41.40614,-1.15381,0.45899,0.95959
337.464,41.46332,-1.17295,0.4546,0.95919
338.064,41.52066,-1.18906,0.44907,0.95878
338.664,41.57807,-1.20838,0.44522,0.95838
339.264,41.63543,-1.22946,0.44054,0.95798
339.864,41.6928,-1.24801,0.43537,0.95757
340.464,41.75005,-1.26758,0.42855,0.95716
341.064,41.80738,-1.28764,0.42422,0.95676
341.664,41.86458,-1.30675,0.41682,0.95635
342.264,41.92164,-1.32574,0.40981,0.95594
342.864,41.97894,-1.34888,0.40655,0.95553
343.464,42.03621,-1.36912,0.40022,0.95512
344.064,42.09368,-1.39024,0.39478,0.95471
344.664,42.15098,-1.41178,0.39002,0.9543
345.264,42.20832,-1.43426,0.38299,0.95389
345.864,42.26561,-1.45458,0.37576,0.95348
346.464,42.32283,-1.47794,0.36935,0.95307
347.064,42.37998,-1.50007,0.35968,0.95265
347.664,42.43692,-1.52318,0.35275,0.95224
348.264,42.4939,-1.5456,0.34609,0.95182
348.864,42.55086,-1.56747,0.33704,0.95141
349.464,42.6078,-1.59027,0.32624,0.95099
350.064,42.66488,-1.61454,0.31717,0.95057
350.664,42.72168,-1.63813,0.30891,0.95015
351.264,42.77845,-1.6616,0.29583,0.94973
351.864,42.83533,-1.68373,0.28544,0.94931
352.464,42.89233,-1.70671,0.27443,0.94889
353.064,42.94947,-1.72974,0.26226,0.94847
353.664,43.0064,-1.75439,0.25121,0.94805
354.264,43.06332,-1.7762,0.2379,0.94763
354.864,43.12017,-1.79724,0.22621,0.94721
355.464,43.17708,-1.82002,0.21334,0.94678
356.064,43.23395,-1.84286,0.19859,0.94636
356.664,43.29086,-1.86317,0.18444,0.94593
357.264,43.34789,-1.88515,0.17153,0.94551
357.864,43.4049,-1.90821,0.15717,0.94508
358.464,43.46184,-1.92772,0.14491,0.94465
359.064,43.519,-1.94642,0.13284,0.94423
359.664,43.57605,-1.96914,0.12083,0.9438
360.264,43.63309,-1.98801,0.10727,0.94337
360.864,43.69031,-2.00636,0.09444785,0.94294
361.464,43.7476,-2.02581,0.08332602,0.94251
362.064,43.80498,-2.04514,0.07254038,0.94208
362.664,43.86204,-2.06207,0.0602176,0.94164
363.264,43.9194,-2.07908,0.05238631,0.94121
363.864,43.97676,-2.09822,0.04182054,0.94078
364.464,44.03433,-2.11567,0.03610585,0.94034
365.064,44.09224,-2.13127,0.02498575,0.93991
365.664,44.14999,-2.14736,0.01839181,0.93948
366.264,44.20772,-2.16292,0.01143512,0.93904
366.864,44.26544,-2.17796,0.005319666,0.9386
367.464,44.32306,-2.19346,0.001622784,0.93817
368.064,44.38081,-2.20548,-0.005705692,0.93773
368.664,44.43877,-2.21939,-0.01183477,0.93729
369.264,44.4965,-2.23386,-0.01313493,0.93685
369.864,44.55415,-2.24557,-0.01625874,0.93641
370.464,44.61192,-2.25866,-0.01990279,0.93597
371.064,44.66981,-2.27171,-0.0205444,0.93553
371.664,44.72784,-2.2816,-0.02286929,0.93509
372.264,44.78599,-2.29503,-0.02461686,0.93465
372.864,44.84398,-2.30568,-0.02727584,0.93421
373.464,44.90191,-2.3159,-0.02796574,0.93376
374.064,44.96005,-2.32533,-0.02933247,0.93332
374.664,45.01809,-2.33557,-0.02905911,0.93288
375.264,45.07621,-2.3457,-0.03079125,0.93243
375.864,45.13419,-2.35492,-0.02954786,0.93199
376.464,45.19223,-2.36357,-0.02955924,0.93154
377.064,45.25034,-2.37249,-0.03109096,0.93109
377.664,45.30843,-2.38022,-0.03033406,0.93065
378.264,45.36644,-2.38828,-0.030443,0.9302
378.864,45.42445,-2.39432,-0.03022968,0.92975
379.464,45.48253,-2.40273,-0.03129952,0.9293
380.064,45.54057,-2.41091,-0.03024414,0.92885
380.664,45.59855,-2.41742,-0.02833465,0.9284
381.264,45.65669,-2.42522,-0.02871132,0.92795
381.864,45.71461,-2.43243,-0.02674361,0.9275
382.464,45.7729,-2.43791,-0.02699301,0.92705
383.064,45.83099,-2.44317,-0.02747199,0.9266
383.664,45.88894,-2.44928,-0.02641911,0.92614
384.264,45.94681,-2.45321,-0.02676035,0.92569
384.864,46.00486,-2.45859,-0.02619348,0.92524
385.464,46.06348,-2.46409,-0.0238345,0.92478
386.064,46.12226,-2.47003,-0.02429448,0.92433
386.664,46.18065,-2.47585,-0.02468309,0.92387
387.264,46.23899,-2.48052,-0.02572627,0.92341
387.864,46.29732,-2.48556,-0.02342783,0.92296
388.464,46.35564,-2.49128,-0.02391228,0.9225
389.064,46.41379,-2.49482,-0.02305278,0.92204
389.664,46.47203,-2.49849,-0.02449625,0.92159
390.264,46.53024,-2.50329,-0.02173349,0.92113
390.864,46.58834,-2.50707,-0.02200086,0.92067
391.464,46.64665,-2.51071,-0.02154683,0.92021
392.064,46.70483,-2.51488,-0.02259385,0.91975
392.664,46.76315,-2.51908,-0.02162831,0.91929
393.264,46.82128,-2.52279,-0.02036796,0.91883
393.864,46.87924,-2.52776,-0.02087488,0.91836
394.464,46.93703,-2.53172,-0.01956108,0.9179
395.064,46.9952,-2.53624,-0.01542823,0.91744
395.664,47.05338,-2.54057,-0.01078027,0.91698
396.264,47.11171,-2.54388,-0.006335876,0.91651
396.864,47.16998,-2.54697,-0.001911198,0.91605
397.464,47.22809,-2.5504,-0.002210482,0.91558
398.064,47.28632,-2.55369,-0.002443881,0.91512
398.664,47.34445,-2.55664,0.0002502954,0.91465
399.264,47.40271,-2.55989,-0.0004423977,0.91419
399.864,47.46101,-2.56261,-0.004331155,0.91372
400.464,47.51922,-2.56789,-0.01305299,0.91325
401.064,47.57729,-2.57014,-0.009769405,0.91278
401.664,47.63557,-2.5728,-0.01403667,0.91232
402.264,47.69382,-2.57473,-0.01756919,0.91185
402.864,47.7521,-2.57816,-0.01582112,0.91138
403.464,47.8103,-2.58149,-0.01491213,0.91091
404.064,47.86843,-2.58578,-0.01330528,0.91044
404.664,47.92644,-2.58854,-0.01419143,0.90997
405.264,47.9847,-2.59021,-0.0121787,0.9095
405.864,48.04297,-2.59329,-0.01832676,0.90903
406.464,48.10133,-2.59658,-0.02648125,0.90855
407.064,48.15961,-2.59967,-0.03140339,0.90808
407.664,48.21796,-2.60156,-0.0357675,0.90761
408.264,48.27615,-2.60541,-0.03647046,0.90714
408.864,48.33443,-2.609,-0.02943624,0.90666
409.464,48.39267,-2.6104,-0.0214845,0.90619
410.064,48.45092,-2.61327,-0.01763742,0.90571
410.664,48.50927,-2.61667,-0.01763642,0.90524
411.264,48.56741,-2.62043,-0.01756729,0.90476
411.864,48.62591,-2.62266,-0.02030881,0.90429
412.464,48.68427,-2.62442,-0.02966052,0.90381
413.064,48.74277,-2.62687,-0.03584085,0.90334
413.664,48.80126,-2.62992,-0.03993312,0.90286
414.264,48.85959,-2.63289,-0.04662319,0.90238
414.864,48.91792,-2.63601,-0.04680052,0.9019
415.464,48.97647,-2.63847,-0.04890715,0.90143
416.064,49.03506,-2.6415,-0.04889578,0.90095
416.664,49.0938,-2.64333,-0.04124931,0.90047
417.264,49.15247,-2.6462,-0.03130567,0.89999
417.864,49.21089,-2.64771,-0.02873991,0.89951
418.464,49.26948,-2.64906,-0.02973634,0.89903
419.064,49.32784,-2.6522,-0.03094871,0.89855
419.664,49.38632,-2.65525,-0.03026013,0.89807
420.264,49.44475,-2.6578,-0.03326283,0.89759
420.864,49.50314,-2.6597,-0.03740711,0.89711
421.464,49.5616,-2.66155,-0.03962573,0.89662
422.064,49.62018,-2.6639,-0.04897883,0.89614
422.664,49.67876,-2.66549,-0.0545761,0.89566
423.264,49.73737,-2.67044,-0.058067,0.89517
423.864,49.79591,-2.6722,-0.06036104,0.89469
424.464,49.85425,-2.67421,-0.05907979,0.89421
425.064,49.91258,-2.67852,-0.06115058,0.89372
425.664,49.97107,-2.68144,-0.06055245,0.89324
426.264,50.0298,-2.68452,-0.05567587,0.89275
426.864,50.08845,-2.6859,-0.05118146,0.89227
427.464,50.14714,-2.68737,-0.05186477,0.89178
428.064,50.20579,-2.69055,-0.05539964,0.8913
428.664,50.26438,-2.69198,-0.05904762,0.89081
429.264,50.32291,-2.69494,-0.06090006,0.89032
429.864,50.38148,-2.6984,-0.0602441,0.88984
430.464,50.44009,-2.70099,-0.06219845,0.88935
431.064,50.4988,-2.70235,-0.05297261,0.88886
431.664,50.55763,-2.70388,-0.04668746,0.88837
432.264,50.61646,-2.70689,-0.04015515,0.88788
432.864,50.67513,-2.70858,-0.0351979,0.88739
433.464,50.73388,-2.71245,-0.03748587,0.88691
434.064,50.79256,-2.71505,-0.03519363,0.88642
434.664,50.85131,-2.71616,-0.03867764,0.88593
435.264,50.91016,-2.71933,-0.04301381,0.88544
435.864,50.96886,-2.72248,-0.05174574,0.88495
436.464,51.02769,-2.7239,-0.05891251,0.88445
437.064,51.08645,-2.72726,-0.06290386,0.88396
437.664,51.14533,-2.73031,-0.0641817,0.88347
438.264,51.20398,-2.73414,-0.06136762,0.88298
438.864,51.26276,-2.73556,-0.05746691,0.88249
439.464,51.32143,-2.73744,-0.05611717,0.882
440.064,51.38015,-2.73832,-0.05859616,0.8815
440.664,51.4389,-2.74131,-0.06239789,0.88101
441.264,51.49744,-2.74409,-0.0637411,0.88052
441.864,51.5561,-2.74571,-0.05410838,0.88002
442.464,51.61485,-2.74864,-0.04855346,0.87953
443.064,51.67354,-2.75129,-0.04846524,0.87904
443.664,51.73239,-2.75295,-0.05229901,0.87854
444.264,51.79128,-2.75634,-0.0575231,0.87805
444.864,51.85,-2.75907,-0.06260505,0.87755
445.464,51.90884,-2.76293,-0.05659044,0.87706
446.064,51.96762,-2.76512,-0.05378817,0.87656
446.664,52.02653,-2.76778,-0.05483788,0.87607
447.264,52.08534,-2.76953,-0.06074123,0.87557
447.864,52.14412,-2.77252,-0.06395312,0.87507
448.464,52.20298,-2.77545,-0.05835259,0.87458
449.064,52.26189,-2.77742,-0.05265119,0.87408
449.664,52.32098,-2.7798,-0.04998628,0.87358
450.264,52.37988,-2.78277,-0.043383,0.87308
450.864,52.43875,-2.78544,-0.0441926,0.87259
451.464,52.49757,-2.78667,-0.04105717,0.87209
452.064,52.55653,-2.78969,-0.04000217,0.87159
452.664,52.6154,-2.79288,-0.04031549,0.87109
453.264,52.67447,-2.79585,-0.04380752,0.87059
453.864,52.73336,-2.79762,-0.05144,0.8701
454.464,52.79231,-2.80046,-0.05163053,0.8696
455.064,52.85118,-2.8051,-0.05336655,0.8691
455.664,52.91014,-2.80825,-0.04981823,0.8686
456.264,52.96907,-2.80964,-0.04640172,0.8681
456.864,53.02793,-2.81104,-0.04693069,0.8676
457.464,53.08667,-2.81336,-0.04683952,0.8671
458.064,53.14549,-2.81604,-0.05293396,0.8666
458.664,53.20422,-2.81872,-0.05547626,0.8661
459.264,53.26302,-2.81953,-0.05729943,0.86559
459.864,53.32172,-2.8229,-0.05386991,0.86509
460.464,53.38052,-2.82669,-0.05048613,0.86459
461.064,53.4392,-2.82957,-0.0483797,0.86409
461.664,53.49787,-2.83098,-0.04332325,0.86359
462.264,53.55677,-2.83401,-0.04264896,0.86309
462.864,53.6157,-2.83717,-0.04010378,0.86258
463.464,53.67489,-2.8392,-0.0364843,0.86208
464.064,53.73366,-2.8412,-0.03704755,0.86158
464.664,53.79231,-2.84416,-0.03725627,0.86108
465.264,53.85104,-2.84753,-0.03608324,0.86057
465.864,53.90977,-2.84972,-0.03926917,0.86007
466.464,53.96886,-2.85385,-0.03738279,0.85957
467.064,54.02779,-2.85681,-0.03511339,0.85906
467.664,54.08674,-2.85947,-0.03547859,0.85856
468.264,54.14564,-2.86116,-0.03254626,0.85806
468.864,54.20457,-2.86389,-0.03490879,0.85755
469.464,54.26344,-2.86723,-0.03492401,0.85705
470.064,54.32232,-2.87004,-0.03482942,0.85654
470.664,54.38106,-2.87308,-0.03474866,0.85604
471.264,54.44006,-2.87611,-0.03267668,0.85553
471.864,54.49886,-2.87763,-0.03346712,0.85503
472.464,54.55805,-2.87911,-0.03581141,0.85452
473.064,54.61718,-2.88207,-0.03356887,0.85402
473.664,54.6766,-2.88551,-0.03388328,0.85351
474.264,54.73564,-2.88689,-0.03391295,0.85301
474.864,54.79466,-2.88979,-0.03462661,0.8525
475.464,54.85368,-2.89159,-0.03439318,0.85199
476.064,54.91252,-2.89408,-0.03404547,0.85149
476.664,54.97167,-2.89748,-0.03502416,0.85098
477.264,55.03066,-2.902,-0.0344457,0.85047
477.864,55.08968,-2.903,-0.03584931,0.84997
478.464,55.1488,-2.90494,-0.03405614,0.84946
479.064,55.20785,-2.90782,-0.03637905,0.84895
479.664,55.26685,-2.91017,-0.03525996,0.84845
480.264,55.32581,-2.91366,-0.03596424,0.84794
480.864,55.38479,-2.9154,-0.03482305,0.84743
481.464,55.44365,-2.9168,-0.03559121,0.84692
482.064,55.50265,-2.91988,-0.03395637,0.84642
482.664,55.56154,-2.92289,-0.03164668,0.84591
483.264,55.62056,-2.92513,-0.03627353,0.8454
483.864,55.67976,-2.92678,-0.03425559,0.84489
484.464,55.7389,-2.92989,-0.0371936,0.84438
485.064,55.79799,-2.93251,-0.03612232,0.84388
485.664,55.85694,-2.93587,-0.03659928,0.84337
486.264,55.91608,-2.93756,-0.04029738,0.84286
486.864,55.97506,-2.94044,-0.03895292,0.84235
487.464,56.03413,-2.9434,-0.03983268,0.84184
488.064,56.09318,-2.94529,-0.03873601,0.84133
488.664,56.15224,-2.94644,-0.03849566,0.84082
489.264,56.21122,-2.94802,-0.03784673,0.84031
489.864,56.27032,-2.95063,-0.03765546,0.83981
490.464,56.32948,-2.95265,-0.03911833,0.8393
491.064,56.38874,-2.95591,-0.04138374,0.83879
491.664,56.44791,-2.95768,-0.04085613,0.83828
492.264,56.50715,-2.96008,-0.03977752,0.83777
492.864,56.56632,-2.96273,-0.04005522,0.83726
493.464,56.62545,-2.96294,-0.03866581,0.83675
494.064,56.68473,-2.96579,-0.03900904,0.83624
494.664,56.74396,-2.96868,-0.03695846,0.83573
495.264,56.80354,-2.96875,-0.0402291,0.83522
495.864,56.86282,-2.96873,-0.02981967,0.83471
496.464,56.92212,-2.97067,-0.02216318,0.8342
497.064,56.98136,-2.97232,-0.01976876,0.83369
497.664,57.04067,-2.9747,-0.01752226,0.83318
498.264,57.0999,-2.976,-0.01445178,0.83267
498.864,57.15924,-2.97889,-0.008456049,0.83216
499.464,57.21851,-2.98017,0.001059479,0.83165
500.064,57.27768,-2.98149,0.004288644,0.83114
500.664,57.33691,-2.98281,0.009810175,0.83062
501.264,57.39605,-2.98488,0.01442875,0.83011
501.864,57.45519,-2.98698,0.01572212,0.8296
502.464,57.51427,-2.98989,0.01854727,0.82909
503.064,57.57344,-2.99216,0.01845563,0.82858
503.664,57.63265,-2.99289,0.02156128,0.82807
504.264,57.6921,-2.99444,0.02076444,0.82756
504.864,57.75146,-2.99553,0.02203176,0.82705
505.464,57.81089,-2.99719,0.02167207,0.82654
506.064,57.87029,-2.99886,0.02210067,0.82603
506.664,57.92972,-3.00136,0.02232547,0.82551
507.264,57.98923,-3.00268,0.02355655,0.825
507.864,58.04871,-3.00465,0.02234814,0.82449
508.464,58.10822,-3.00619,0.02653851,0.82398
509.064,58.16773,-3.00745,0.02717742,0.82347
509.664,58.22728,-3.01024,0.02691871,0.82296
510.264,58.28684,-3.01168,0.02993781,0.82245
510.864,58.34632,-3.01234,0.02919621,0.82193
511.464,58.40555,-3.01365,0.02919542,0.82142
512.064,58.465,-3.01497,0.02814135,0.82091
512.664,58.52435,-3.01629,0.02861691,0.8204
513.264,58.58383,-3.01759,0.02876463,0.81989
513.864,58.64332,-3.0197,0.02747595,0.81938
514.464,58.70267,-3.02155,0.02169803,0.81886
515.064,58.76202,-3.02299,0.02231714,0.81835
515.664,58.82132,-3.02549,0.02149074,0.81784
516.264,58.88081,-3.02596,0.01924817,0.81733
516.864,58.94035,-3.02871,0.01803463,0.81682
517.464,58.99988,-3.03001,0.01853647,0.81631
518.064,59.05932,-3.03133,0.01572561,0.81579
518.664,59.11863,-3.03265,0.01495169,0.81528
519.264,59.17789,-3.03393,0.01046002,0.81477
519.864,59.23709,-3.03571,0.008662113,0.81426
520.464,59.29636,-3.03806,0.008664912,0.81375
521.064,59.35563,-3.038,0.007171959,0.81324
521.664,59.41504,-3.04044,0.003571239,0.81272
522.264,59.47439,-3.0397,0.001431914,0.81221
522.864,59.53382,-3.04044,0.0008137662,0.8117
523.464,59.59326,-3.042,-5.203861e-05,0.81119
524.064,59.65259,-3.04331,-0.002708946,0.81068
524.664,59.71192,-3.04462,-0.003981859,0.81017
525.264,59.77139,-3.04686,-0.004159796,0.80965
525.864,59.83059,-3.04797,0.001015917,0.80914
526.464,59.88994,-3.05021,0.004071935,0.80863
527.064,59.94934,-3.05019,0.006001895,0.80812
527.664,60.00884,-3.05153,0.006671011,0.80761
528.264,60.06823,-3.05285,0.002728772,0.8071
528.864,60.12767,-3.05371,0.001537282,0.80658
529.464,60.18692,-3.05632,-0.0003004844,0.80607
530.064,60.24638,-3.05779,-0.003348962,0.80556
530.664,60.30598,-3.05855,-0.003716751,0.80505
531.264,60.36556,-3.0585,-0.0039388,0.80454
531.864,60.42531,-3.06055,-0.007257311,0.80403
532.464,60.48499,-3.06053,-0.008212863,0.80352
533.064,60.5446,-3.06336,-0.01089184,0.803
533.664,60.60428,-3.0647,-0.01228082,0.80249
534.264,60.66378,-3.06338,-0.01442976,0.80198
534.864,60.72323,-3.0647,-0.01943815,0.80147
535.464,60.78275,-3.06602,-0.02218034,0.80096
536.064,60.84231,-3.06735,-0.0257335,0.80045
536.664,60.90163,-3.06997,-0.03112979,0.79994
537.264,60.96071,-3.06996,-0.04885824,0.79943
537.864,61.01967,-3.07191,-0.08953328,0.79892
538.464,61.0783,-3.07261,-0.11645,0.79841
539.064,61.13724,-3.0726,-0.13882,0.79789
539.664,61.19669,-3.07392,-0.15483,0.79738
540.264,61.25636,-3.07524,-0.16473,0.79687
540.864,61.31644,-3.07658,-0.17033,0.79636
541.464,61.37597,-3.07655,-0.17377,0.79585
542.064,61.43576,-3.07787,-0.17672,0.79534
542.664,61.49551,-3.07787,-0.18145,0.79483
543.264,61.55554,-3.0792,-0.18504,0.79432
543.864,61.61529,-3.07986,-0.18563,0.79381
544.464,61.67497,-3.08117,-0.18647,0.7933
545.064,61.73468,-3.08249,-0.18532,0.79279
545.664,61.79438,-3.08251,-0.18972,0.79228
546.264,61.85373,-3.08315,-0.19225,0.79177
546.864,61.91362,-3.08496,-0.19481,0.79126
547.464,61.97339,-3.08544,-0.19643,0.79075
548.064,62.03341,-3.08677,-0.19748,0.79024
548.664,62.09324,-3.0881,-0.19999,0.78973
549.264,62.15294,-3.08845,-0.20314,0.78922
549.864,62.21269,-3.08809,-0.20267,0.78871
550.464,62.27234,-3.08955,-0.20538,0.7882
551.064,62.3319,-3.09051,-0.21338,0.7877
551.664,62.39156,-3.08941,-0.21937,0.78719
552.264,62.45128,-3.09072,-0.22072,0.78668
552.864,62.51109,-3.09209,-0.22224,0.78617
553.464,62.57077,-3.09336,-0.22163,0.78566
554.064,62.63053,-3.09468,-0.22161,0.78515
554.664,62.69058,-3.09599,-0.22218,0.78464
555.264,62.75049,-3.09732,-0.22397,0.78413
555.864,62.81053,-3.09731,-0.223,0.78363
556.464,62.8704,-3.09599,-0.22441,0.78312
557.064,62.93049,-3.09698,-0.22733,0.78261
557.664,62.99078,-3.09863,-0.22806,0.7821
558.264,63.05081,-3.09919,-0.22964,0.78159
558.864,63.11084,-3.09863,-0.23185,0.78109
559.464,63.17076,-3.09994,-0.2342,0.78058
560.064,63.23073,-3.10127,-0.23621,0.78007
560.664,63.29094,-3.10127,-0.23966,0.77956
561.264,63.35082,-3.10258,-0.2441,0.77906
561.864,63.41096,-3.10258,-0.24866,0.77855
562.464,63.47079,-3.10389,-0.24929,0.77804
563.064,63.53071,-3.10388,-0.24983,0.77753
563.664,63.59054,-3.10521,-0.25238,0.77703
564.264,63.65043,-3.10653,-0.25698,0.77652
564.864,63.71045,-3.10653,-0.25581,0.77601
565.464,63.77068,-3.10785,-0.25943,0.77551
566.064,63.83076,-3.10915,-0.25904,0.775
566.664,63.89084,-3.10916,-0.25905,0.7745
567.264,63.95074,-3.10916,-0.25907,0.77399
567.864,64.01073,-3.10916,-0.26297,0.77348
568.464,64.07073,-3.11048,-0.26291,0.77298
569.064,64.13072,-3.11048,-0.26504,0.77247
569.664,64.19065,-3.1118,-0.26984,0.77197
570.264,64.25058,-3.1118,-0.26598,0.77146
570.864,64.31056,-3.11298,-0.26941,0.77096
571.464,64.37065,-3.11344,-0.27394,0.77045
572.064,64.43053,-3.11344,-0.27666,0.76995
572.664,64.49043,-3.11344,-0.27767,0.76944
573.264,64.55021,-3.11411,-0.28403,0.76894
573.864,64.61018,-3.1141,-0.28519,0.76843
574.464,64.67021,-3.1141,-0.28796,0.76793
575.064,64.73031,-3.11478,-0.29251,0.76743
575.664,64.7903,-3.1171,-0.29792,0.76692
576.264,64.85025,-3.11916,-0.30503,0.76642
576.864,64.91011,-3.11762,-0.31989,0.76591
577.464,64.96982,-3.11631,-0.33455,0.76541
578.064,65.02934,-3.12,-0.36057,0.76491
578.664,65.08866,-3.12101,-0.38077,0.7644
579.264,65.148,-3.12101,-0.39829,0.7639
579.864,65.20735,-3.11926,-0.41234,0.7634
580.464,65.26696,-3.1208,-0.42085,0.7629
581.064,65.32688,-3.11982,-0.42546,0.76239
581.664,65.38685,-3.11982,-0.43035,0.76189
582.264,65.44709,-3.12082,-0.43011,0.76139
582.864,65.50713,-3.11982,-0.43044,0.76089
583.464,65.5671,-3.1211,-0.43092,0.76039
584.064,65.62734,-3.12245,-0.4327,0.75989
584.664,65.68745,-3.12245,-0.43107,0.75938
585.264,65.74759,-3.12244,-0.43332,0.75888
585.864,65.80767,-3.12245,-0.43572,0.75838
586.464,65.8677,-3.12245,-0.43811,0.75788
587.064,65.92781,-3.12377,-0.43966,0.75738
587.664,65.98797,-3.12509,-0.43992,0.75688
588.264,66.04815,-3.12509,-0.43873,0.75638
588.864,66.10833,-3.12509,-0.4365,0.75588
589.464,66.16863,-3.1264,-0.43148,0.75538
590.064,66.22879,-3.1264,-0.42965,0.75488
590.664,66.28906,-3.1264,-0.42484,0.75438
591.264,66.34927,-3.12772,-0.4184,0.75388
591.864,66.40956,-3.12772,-0.41529,0.75338
592.464,66.46998,-3.12772,-0.41282,0.75288
593.064,66.53037,-3.12772,-0.40611,0.75239
593.664,66.59082,-3.12838,-0.40059,0.75189
594.264,66.6511,-3.12903,-0.396,0.75139
594.864,66.71142,-3.12903,-0.38804,0.75089
595.464,66.77175,-3.12903,-0.3867,0.75039
596.064,66.83205,-3.12911,-0.38358,0.7499
596.664,66.89246,-3.13046,-0.38068,0.7494
597.264,66.95286,-3.13167,-0.37365,0.7489
597.864,67.0134,-3.13167,-0.37113,0.7484
598.464,67.07369,-3.13089,-0.36715,0.74791
599.064,67.13378,-3.13167,-0.36297,0.74741
599.664,67.19417,-3.13299,-0.36011,0.74692
600.264,67.25449,-3.13299,-0.35433,0.74642
600.864,67.31481,-3.13299,-0.34934,0.74592
601.464,67.3753,-3.13298,-0.34662,0.74543
602.064,67.43549,-3.13298,-0.33856,0.74493
602.664,67.49583,-3.13435,-0.33918,0.74444
603.264,67.55615,-3.1343,-0.33317,0.74394
603.864,67.61626,-3.13294,-0.33064,0.74345
604.464,67.67643,-3.1343,-0.32782,0.74295
605.064,67.73643,-3.13519,-0.32547,0.74246
605.664,67.79666,-3.13464,-0.32653,0.74196
606.264,67.8569,-3.13464,-0.32388,0.74147
606.864,67.91729,-3.13659,-0.32442,0.74098
607.464,67.97754,-3.13727,-0.32542,0.74048
608.064,68.03739,-3.13727,-0.3231,0.73999
608.664,68.09779,-3.13727,-0.32005,0.7395
609.264,68.15815,-3.13859,-0.31936,0.73901
609.864,68.21885,-3.13859,-0.31684,0.73851
610.464,68.27936,-3.13858,-0.31537,0.73802
611.064,68.33996,-3.13858,-0.31639,0.73753
611.664,68.40058,-3.13853,-0.31526,0.73704
612.264,68.46121,-3.13727,-0.31597,0.73655
612.864,68.52173,-3.13593,-0.3127,0.73605
613.464,68.58219,-3.1374,-0.3134,0.73556
614.064,68.64253,-3.13991,-0.31336,0.73507
614.664,68.70317,-3.13991,-0.3102,0.73458
615.264,68.76355,-3.13991,-0.31052,0.73409
615.864,68.82395,-3.13991,-0.30866,0.7336
616.464,68.88441,-3.13958,-0.31061,0.73311
617.064,68.94473,-3.13991,-0.30705,0.73262
617.664,69.00499,-3.13991,-0.30758,0.73213
618.264,69.06534,-3.14058,-0.30702,0.73164
618.864,69.12572,-3.14122,-0.30744,0.73116
619.464,69.18641,-3.14152,-0.30422,0.73067
620.064,69.24693,-3.14254,-0.30212,0.73018
620.664,69.30733,-3.14119,-0.30329,0.72969
621.264,69.36766,-3.14122,-0.30256,0.7292
621.864,69.42795,-3.14136,-0.30087,0.72872
622.464,69.48821,-3.14387,-0.30371,0.72823
623.064,69.5488,-3.14386,-0.3019,0.72774
623.664,69.60925,-3.14486,-0.30063,0.72726
624.264,69.66969,-3.1452,-0.30106,0.72677
624.864,69.73005,-3.14353,-0.29964,0.72628
625.464,69.79053,-3.14353,-0.3007,0.7258
626.064,69.8511,-3.14353,-0.30055,0.72531
626.664,69.91167,-3.14485,-0.29932,0.72483
627.264,69.97218,-3.14616,-0.29842,0.72434
627.864,70.03265,-3.146,-0.29942,0.72386
628.464,70.09277,-3.14484,-0.30113,0.72337
629.064,70.15319,-3.1455,-0.29826,0.72289
629.664,70.21373,-3.1455,-0.29474,0.7224
630.264,70.2745,-3.1455,-0.29621,0.72192
630.864,70.33518,-3.1465,-0.29331,0.72144
631.464,70.39575,-3.14648,-0.29244,0.72095
632.064,70.45614,-3.14782,-0.29216,0.72047
632.664,70.51645,-3.14651,-0.29125,0.71999
633.264,70.57685,-3.14517,-0.29203,0.71951
633.864,70.63722,-3.14579,-0.29195,0.71902
634.464,70.69747,-3.14649,-0.29278,0.71854
635.064,70.75783,-3.14781,-0.29045,0.71806
635.664,70.81814,-3.14911,-0.29387,0.71758
636.264,70.87841,-3.14789,-0.28984,0.7171
636.864,70.93882,-3.14781,-0.28901,0.71662
637.464,70.99918,-3.14912,-0.29004,0.71614
638.064,71.05955,-3.14912,-0.29111,0.71566
638.664,71.11979,-3.14912,-0.28855,0.71518
639.264,71.18009,-3.15044,-0.28874,0.7147
639.864,71.24042,-3.15044,-0.29115,0.71422
640.464,71.30043,-3.14814,-0.28722,0.71374
641.064,71.3603,-3.14814,-0.28799,0.71326
641.664,71.42029,-3.14814,-0.29005,0.71278
642.264,71.48052,-3.14946,-0.28954,0.71231
642.864,71.54138,-3.14946,-0.28896,0.71183
643.464,71.6015,-3.14944,-0.29137,0.71135
644.064,71.66189,-3.15078,-0.29172,0.71087
644.664,71.72158,-3.15078,-0.28956,0.7104
645.264,71.78205,-3.15078,-0.29177,0.70992
645.864,71.84232,-3.15162,-0.29095,0.70944
646.464,71.90288,-3.15209,-0.28799,0.70897
647.064,71.96341,-3.15341,-0.28652,0.70849
647.664,72.02356,-3.15341,-0.28724,0.70802
648.264,72.08391,-3.15341,-0.28451,0.70754
648.864,72.14435,-3.15076,-0.28571,0.70707
649.464,72.2048,-3.15108,-0.2841,0.70659
650.064,72.26505,-3.15374,-0.28263,0.70612
650.664,72.32531,-3.15437,-0.28143,0.70564
651.264,72.3858,-3.15285,-0.28361,0.70517
651.864,72.44643,-3.15341,-0.27795,0.7047
652.464,72.50754,-3.15341,-0.28006,0.70423
653.064,72.56821,-3.15341,-0.28066,0.70375
653.664,72.62884,-3.15207,-0.28146,0.70328
654.264,72.68934,-3.15341,-0.27826,0.70281
654.864,72.75005,-3.15341,-0.27862,0.70234
655.464,72.81053,-3.15472,-0.28046,0.70187
656.064,72.87126,-3.15472,-0.27986,0.70139
656.664,72.93201,-3.15472,-0.27824,0.70092
657.264,72.99271,-3.15472,-0.278,0.70045
657.864,73.05338,-3.15472,-0.27744,0.69998
658.464,73.114,-3.15472,-0.28016,0.69951
659.064,73.17465,-3.15604,-0.28023,0.69904
659.664,73.23531,-3.15702,-0.28069,0.69857
660.264,73.296,-3.15698,-0.27999,0.69811
660.864,73.35676,-3.15571,-0.27865,0.69764
661.464,73.41745,-3.15703,-0.28078,0.69717
662.064,73.4783,-3.15703,-0.27997,0.6967
662.664,73.53901,-3.15703,-0.27909,0.69623
663.264,73.59971,-3.15703,-0.27733,0.69577
663.864,73.66036,-3.15806,-0.27951,0.6953
664.464,73.72099,-3.15737,-0.2793,0.69483
665.064,73.78153,-3.15736,-0.27878,0.69437
665.664,73.842,-3.15736,-0.27983,0.6939
666.264,73.90239,-3.15736,-0.27921,0.69344
666.864,73.96267,-3.15867,-0.28238,0.69297
667.464,74.0233,-3.15867,-0.2823,0.6925
668.064,74.08395,-3.15867,-0.28211,0.69204
668.664,74.14501,-3.15999,-0.27902,0.69158
669.264,74.20572,-3.15966,-0.28039,0.69111
669.864,74.26645,-3.15966,-0.28412,0.69065
670.464,74.32717,-3.16081,-0.28263,0.69019
671.064,74.38795,-3.16076,-0.28303,0.68972
671.664,74.44869,-3.16076,-0.28338,0.68926
672.264,74.50939,-3.15978,-0.2832,0.6888
672.864,74.56999,-3.15978,-0.28626,0.68834
673.464,74.63058,-3.16077,-0.28359,0.68787
674.064,74.69123,-3.16077,-0.28351,0.68741
674.664,74.75188,-3.16089,-0.28233,0.68695
675.264,74.81256,-3.1611,-0.28095,0.68649
675.864,74.87328,-3.1616,-0.28383,0.68603
676.464,74.93398,-3.16241,-0.28697,0.68557
677.064,74.99455,-3.16241,-0.28672,0.68511
677.664,75.05521,-3.16241,-0.28722,0.68465
678.264,75.11589,-3.16241,-0.28615,0.68419
678.864,75.17662,-3.1624,-0.28805,0.68373
679.464,75.23729,-3.1634,-0.28596,0.68328
680.064,75.29792,-3.1634,-0.29027,0.68282
680.664,75.35856,-3.1634,-0.28855,0.68236
681.264,75.4192,-3.1634,-0.28806,0.6819
681.864,75.4799,-3.16406,-0.28946,0.68145
682.464,75.54057,-3.16406,-0.28865,0.68099
683.064,75.60125,-3.16406,-0.28827,0.68053
683.664,75.66195,-3.16406,-0.28957,0.68008
684.264,75.72265,-3.16407,-0.2895,0.67962
684.864,75.7834,-3.16406,-0.29258,0.67917
685.464,75.84411,-3.16406,-0.28865,0.67871
686.064,75.90478,-3.16472,-0.28997,0.67826
686.664,75.96548,-3.1651,-0.29079,0.6778
687.264,76.02609,-3.16603,-0.29139,0.67735
687.864,76.08672,-3.16471,-0.29245,0.67689
688.464,76.14731,-3.16471,-0.29454,0.67644
689.064,76.20786,-3.16506,-0.29335,0.67599
689.664,76.26834,-3.1657,-0.29325,0.67554
690.264,76.32885,-3.16604,-0.29363,0.67508
690.864,76.38937,-3.16735,-0.29316,0.67463
691.464,76.4499,-3.16603,-0.29114,0.67418
692.064,76.51052,-3.16603,-0.29559,0.67373
692.664,76.57116,-3.16702,-0.29593,0.67328
693.264,76.63174,-3.16702,-0.29635,0.67283
693.864,76.69223,-3.16702,-0.29484,0.67238
694.464,76.7527,-3.16833,-0.29763,0.67193
695.064,76.8132,-3.16833,-0.2981,0.67148
695.664,76.87377,-3.16833,-0.29768,0.67103
696.264,76.93425,-3.16833,-0.2995,0.67058
696.864,76.99469,-3.16833,-0.29983,0.67013
697.464,77.05526,-3.16965,-0.29919,0.66969
698.064,77.11594,-3.16965,-0.29866,0.66924
698.664,77.17685,-3.16965,-0.29938,0.66879
699.264,77.23758,-3.16864,-0.29777,0.66834
699.864,77.29813,-3.16978,-0.29905,0.6679
700.464,77.3586,-3.16999,-0.29997,0.66745
701.064,77.41904,-3.16999,-0.3038,0.66701
701.664,77.47945,-3.16999,-0.30069,0.66656
701.864,77.50114,-3.16999,-0.30092,0.66641