File: 01_Data/Polyisocyanurate_Spray_Foam_Insulation/STA/N2/10K_min/Polyisocyanurate_Spray_Foam_Insulation_STA_N2_10KData_241029_R1.csv
Temp/C,Time/min,Mass loss(subtr.)/mg,DSC(subtr.)/(mW/mg),Sensit./(uV/mW)
25.996,10.005,-0.00439,0.007527587,1.00321
26.596,10.76642,-0.003998742,0.03892836,1.00354
27.196,10.9631,-0.003833327,0.06391469,1.00386
27.796,11.10612,-0.003661303,0.08370442,1.00419
28.396,11.22569,-0.005157424,0.09734579,1.00451
28.996,11.33305,-0.006108897,0.11141,1.00483
29.596,11.43135,-0.004448881,0.12608,1.00515
30.196,11.5221,-0.003391071,0.13401,1.00546
30.796,11.6081,-0.003852229,0.14348,1.00578
31.396,11.69157,-0.004363306,0.15133,1.00609
31.996,11.7717,-0.00463289,0.15805,1.0064
32.596,11.84953,-0.00449294,0.16507,1.00671
33.196,11.92521,-0.004729998,0.17121,1.00701
33.796,11.9998,-0.004498016,0.17604,1.00732
34.396,12.07257,-0.004500873,0.18037,1.00762
34.996,12.14465,-0.004281172,0.1844,1.00792
35.596,12.21551,-0.006274407,0.18936,1.00822
36.196,12.28546,-0.00382967,0.19432,1.00852
36.796,12.35463,-0.004937094,0.19905,1.00881
37.396,12.42343,-0.005958679,0.20079,1.00911
37.996,12.49197,-0.006425286,0.20148,1.0094
38.596,12.56004,-0.004937922,0.20846,1.00969
39.196,12.62777,-0.004934424,0.21121,1.00998
39.796,12.69478,-0.004939987,0.2139,1.01027
40.396,12.76082,-0.004936649,0.21542,1.01055
40.996,12.82748,-0.00560363,0.21881,1.01083
41.596,12.89356,-0.00625257,0.22115,1.01112
42.196,12.96035,-0.006259717,0.22337,1.0114
42.796,13.02614,-0.006512207,0.22369,1.01167
43.396,13.09189,-0.00758041,0.22599,1.01195
43.996,13.15745,-0.00655157,0.229,1.01222
44.596,13.22288,-0.00624463,0.23009,1.0125
45.196,13.28814,-0.006259073,0.23241,1.01277
45.796,13.35321,-0.007584317,0.23272,1.01303
46.396,13.41794,-0.006260002,0.2368,1.0133
46.996,13.48224,-0.007575223,0.23718,1.01357
47.596,13.54664,-0.007355466,0.24135,1.01383
48.196,13.61076,-0.007591493,0.24135,1.01409
48.796,13.6748,-0.007877628,0.24205,1.01435
49.396,13.73844,-0.008882091,0.24384,1.01461
49.996,13.80202,-0.008897923,0.24654,1.01487
50.596,13.86553,-0.01021,0.24897,1.01512
51.196,13.92903,-0.008936325,0.24944,1.01537
51.796,13.99247,-0.008889843,0.24887,1.01562
52.396,14.05569,-0.00889003,0.24927,1.01587
52.996,14.11866,-0.01020542,0.25054,1.01612
53.596,14.18144,-0.008900333,0.25214,1.01636
54.196,14.24376,-0.009104213,0.25192,1.01661
54.796,14.30591,-0.01022302,0.25103,1.01685
55.396,14.36819,-0.01021009,0.25089,1.01709
55.996,14.43062,-0.01153009,0.25225,1.01733
56.596,14.49333,-0.01153216,0.2496,1.01756
57.196,14.55564,-0.01152926,0.2513,1.0178
57.796,14.61768,-0.01186341,0.24957,1.01803
58.396,14.67965,-0.01152015,0.24988,1.01826
58.996,14.74136,-0.01156528,0.24791,1.01849
59.596,14.80292,-0.01284466,0.24937,1.01872
60.196,14.86417,-0.01177266,0.24687,1.01894
60.796,14.92539,-0.01284999,0.24681,1.01917
61.396,14.98628,-0.01153055,0.24584,1.01939
61.996,15.0475,-0.01283414,0.24465,1.01961
62.596,15.1084,-0.01285122,0.24452,1.01983
63.196,15.1692,-0.01319978,0.2438,1.02005
63.796,15.23,-0.01284005,0.2418,1.02026
64.396,15.29048,-0.01283987,0.24147,1.02047
64.996,15.35095,-0.01416012,0.23893,1.02068
65.596,15.41124,-0.01416,0.23978,1.02089
66.196,15.47149,-0.01551217,0.23984,1.0211
66.796,15.53179,-0.0145,0.23803,1.02131
67.396,15.59197,-0.01580486,0.24036,1.02151
67.996,15.65161,-0.01547983,0.23617,1.02171
68.596,15.71137,-0.0141557,0.23569,1.02192
69.196,15.77119,-0.01416001,0.23394,1.02211
69.796,15.83094,-0.01547971,0.23444,1.02231
70.396,15.89109,-0.01416127,0.23321,1.02251
70.996,15.95105,-0.01421299,0.23341,1.0227
71.596,16.01109,-0.01416,0.23474,1.02289
72.196,16.07085,-0.01416,0.23399,1.02308
72.796,16.13047,-0.01451758,0.23269,1.02327
73.396,16.19008,-0.01548,0.2344,1.02346
73.996,16.2497,-0.0140894,0.23341,1.02364
74.596,16.30958,-0.01537289,0.23315,1.02382
75.196,16.36926,-0.01537039,0.23387,1.02401
75.796,16.4289,-0.01617075,0.23417,1.02419
76.396,16.48857,-0.01525444,0.2341,1.02436
76.996,16.54821,-0.01656768,0.235,1.02454
77.596,16.60792,-0.01658061,0.23652,1.02471
78.196,16.66752,-0.01723786,0.23505,1.02489
78.796,16.72729,-0.01658,0.23686,1.02506
79.396,16.78694,-0.01787299,0.23651,1.02523
79.996,16.84649,-0.01789,0.23677,1.02539
80.596,16.906,-0.01789,0.23629,1.02556
81.196,16.96541,-0.01657715,0.23591,1.02572
81.796,17.02481,-0.01754875,0.23725,1.02588
82.396,17.0843,-0.01726681,0.23912,1.02604
82.996,17.14371,-0.01723986,0.24039,1.0262
83.596,17.20329,-0.01823015,0.24021,1.02636
84.196,17.26262,-0.01855964,0.24154,1.02651
84.796,17.32206,-0.01988166,0.24258,1.02667
85.396,17.38136,-0.01922,0.24135,1.02682
85.996,17.44059,-0.01788256,0.24343,1.02697
86.596,17.49975,-0.01852754,0.243,1.02712
87.196,17.55864,-0.01920963,0.24375,1.02726
87.796,17.61786,-0.01921,0.24494,1.02741
88.396,17.67694,-0.01921,0.24515,1.02755
88.996,17.73644,-0.01921034,0.24611,1.02769
89.596,17.79557,-0.02052995,0.24511,1.02783
90.196,17.85469,-0.02053072,0.24653,1.02797
90.796,17.91292,-0.01920983,0.2477,1.0281
91.396,17.97156,-0.02018267,0.24839,1.02824
91.996,18.0298,-0.02119,0.24778,1.02837
92.596,18.08859,-0.02119065,0.24715,1.0285
93.196,18.14745,-0.02181836,0.24944,1.02863
93.796,18.20657,-0.02282927,0.25075,1.02876
94.396,18.26548,-0.02184,0.25066,1.02888
94.996,18.32486,-0.02150833,0.25272,1.029
95.596,18.38364,-0.02278501,0.25341,1.02913
96.196,18.44228,-0.02283,0.25434,1.02925
96.796,18.50093,-0.02283,0.2557,1.02937
97.396,18.55955,-0.02283918,0.25483,1.02948
97.996,18.61834,-0.02283997,0.25539,1.0296
98.596,18.67697,-0.02306286,0.25853,1.02971
99.196,18.73536,-0.02415,0.25931,1.02982
99.796,18.79385,-0.02549928,0.26018,1.02993
100.396,18.85232,-0.02547,0.25866,1.03004
100.996,18.91065,-0.02547,0.25979,1.03015
101.596,18.96904,-0.02545497,0.26001,1.03025
102.196,19.02691,-0.02580054,0.26203,1.03035
102.796,19.085,-0.0258,0.26177,1.03046
103.396,19.14347,-0.02547003,0.26318,1.03056
103.996,19.20186,-0.02546988,0.2636,1.03065
104.596,19.26069,-0.02678215,0.26485,1.03075
105.196,19.31884,-0.0281,0.26659,1.03084
105.796,19.37699,-0.0281,0.26628,1.03094
106.396,19.43522,-0.02679267,0.26876,1.03103
106.996,19.49341,-0.02811001,0.26797,1.03112
107.596,19.55165,-0.02810989,0.26759,1.03121
108.196,19.60991,-0.02941996,0.26682,1.03129
108.796,19.66816,-0.03017297,0.26718,1.03138
109.396,19.72632,-0.03074,0.27148,1.03146
109.996,19.78454,-0.03074,0.27268,1.03154
110.596,19.84264,-0.03074,0.27365,1.03162
111.196,19.90078,-0.03074,0.27401,1.0317
111.796,19.9587,-0.0320601,0.27563,1.03177
112.396,20.01654,-0.03205,0.27511,1.03185
112.996,20.07457,-0.03205,0.27731,1.03192
113.596,20.13246,-0.0320503,0.27798,1.03199
114.196,20.19054,-0.03303951,0.27753,1.03206
114.796,20.24858,-0.03337,0.27899,1.03213
115.396,20.3065,-0.03337033,0.27967,1.03219
115.996,20.36454,-0.03463959,0.28041,1.03226
116.596,20.42261,-0.03568,0.27942,1.03232
117.196,20.48059,-0.03568007,0.28002,1.03238
117.796,20.53866,-0.03468987,0.28117,1.03244
118.396,20.59665,-0.03732183,0.28177,1.0325
118.996,20.6546,-0.03733,0.28221,1.03255
119.596,20.71254,-0.03733,0.28522,1.03261
120.196,20.77057,-0.03733,0.28541,1.03266
120.796,20.82848,-0.03847439,0.28595,1.03271
121.396,20.88654,-0.03873143,0.28745,1.03276
121.996,20.94455,-0.03897,0.28945,1.03281
122.596,21.00241,-0.03897029,0.2876,1.03285
123.196,21.06044,-0.03996001,0.28798,1.0329
123.796,21.11817,-0.04094443,0.28853,1.03294
124.396,21.17603,-0.04130943,0.29019,1.03298
124.996,21.23372,-0.0426182,0.28983,1.03302
125.596,21.2913,-0.0426,0.29133,1.03306
126.196,21.34909,-0.04346827,0.29051,1.03309
126.796,21.40689,-0.04483239,0.28985,1.03313
127.396,21.46495,-0.04523,0.29125,1.03316
127.996,21.52288,-0.04523,0.29168,1.03319
128.596,21.58065,-0.04522992,0.29443,1.03322
129.196,21.63841,-0.0478643,0.29316,1.03325
129.796,21.69612,-0.04787,0.29455,1.03327
130.396,21.75375,-0.04787,0.29433,1.0333
130.996,21.81125,-0.04787,0.29415,1.03332
131.596,21.8687,-0.04785278,0.29612,1.03334
132.196,21.92624,-0.04919,0.29692,1.03336
132.796,21.98393,-0.04919,0.29688,1.03338
133.396,22.0414,-0.04919,0.29774,1.03339
133.996,22.09889,-0.05038808,0.29901,1.03341
134.596,22.15617,-0.05180304,0.29943,1.03342
135.196,22.21365,-0.05276023,0.29988,1.03343
135.796,22.27121,-0.0528,0.29969,1.03344
136.396,22.32893,-0.0528,0.29956,1.03345
136.996,22.38653,-0.0528,0.30038,1.03346
137.596,22.44407,-0.05373833,0.30149,1.03346
138.196,22.5015,-0.05412,0.30221,1.03347
138.796,22.55901,-0.05389283,0.3008,1.03347
139.396,22.61647,-0.05328585,0.30272,1.03347
139.996,22.67376,-0.05544,0.30394,1.03347
140.596,22.73122,-0.05544002,0.30404,1.03346
141.196,22.7886,-0.05676256,0.30485,1.03346
141.796,22.8461,-0.05676,0.30553,1.03345
142.396,22.90339,-0.05676009,0.307,1.03344
142.996,22.96079,-0.05807958,0.30773,1.03343
143.596,23.01817,-0.05808,0.30928,1.03342
144.196,23.07545,-0.05808,0.309,1.03341
144.796,23.13296,-0.05945177,0.31071,1.0334
145.396,23.19045,-0.0594027,0.3109,1.03338
145.996,23.24797,-0.06203417,0.31149,1.03336
146.596,23.30574,-0.06202,0.31249,1.03334
147.196,23.36324,-0.06202,0.31335,1.03332
147.796,23.42052,-0.06202,0.31445,1.0333
148.396,23.47774,-0.06202,0.31485,1.03328
148.996,23.53494,-0.063008,0.31392,1.03325
149.596,23.59207,-0.06301,0.31469,1.03322
150.196,23.64933,-0.06430032,0.31704,1.0332
150.796,23.70672,-0.06433,0.31724,1.03317
151.396,23.76408,-0.06433,0.3159,1.03313
151.996,23.82155,-0.06432759,0.31794,1.0331
152.596,23.87889,-0.06597999,0.32022,1.03307
153.196,23.93615,-0.06598,0.3199,1.03303
153.796,23.99351,-0.06598,0.32125,1.03299
154.396,24.05089,-0.06602154,0.31942,1.03295
154.996,24.10834,-0.0686145,0.32169,1.03291
155.596,24.16566,-0.06862,0.32159,1.03287
156.196,24.22292,-0.06861966,0.32347,1.03282
156.796,24.28021,-0.06993004,0.3251,1.03278
157.396,24.33725,-0.06993,0.32665,1.03273
157.996,24.39435,-0.06993036,0.32629,1.03268
158.596,24.45138,-0.07124739,0.32699,1.03263
159.196,24.50837,-0.07256998,0.32868,1.03258
159.796,24.56534,-0.07124309,0.32651,1.03253
160.396,24.6225,-0.07243214,0.32873,1.03247
160.996,24.67958,-0.07322,0.32863,1.03241
161.596,24.73674,-0.07322,0.32749,1.03236
162.196,24.79406,-0.07322,0.32978,1.0323
162.796,24.85114,-0.07321946,0.33131,1.03224
163.396,24.90814,-0.07419383,0.3342,1.03217
163.996,24.96528,-0.07519945,0.33366,1.03211
164.596,25.0223,-0.07718003,0.33405,1.03204
165.196,25.07946,-0.07716129,0.33537,1.03198
165.796,25.13674,-0.07751,0.33748,1.03191
166.396,25.19388,-0.07750973,0.33981,1.03184
166.996,25.25048,-0.0788201,0.34025,1.03176
167.596,25.30754,-0.07751176,0.34017,1.03169
168.196,25.36462,-0.07879768,0.34237,1.03162
168.796,25.42197,-0.08014117,0.34241,1.03154
169.396,25.47968,-0.08014254,0.34281,1.03146
169.996,25.53679,-0.08110476,0.34416,1.03138
170.596,25.59361,-0.08178461,0.34609,1.0313
171.196,25.65055,-0.0828394,0.34623,1.03122
171.796,25.70744,-0.08443435,0.34678,1.03113
172.396,25.76462,-0.08441799,0.34873,1.03105
172.996,25.82178,-0.08575,0.34966,1.03096
173.596,25.87862,-0.08476245,0.35155,1.03087
174.196,25.93552,-0.08606129,0.34996,1.03078
174.796,25.99241,-0.08706574,0.35054,1.03069
175.396,26.04936,-0.08738072,0.35488,1.0306
175.996,26.10617,-0.08869996,0.35434,1.0305
176.596,26.16257,-0.08869788,0.3545,1.03041
177.196,26.21904,-0.09001997,0.35375,1.03031
177.796,26.27592,-0.09001329,0.35456,1.03021
178.396,26.33304,-0.09254963,0.3574,1.03011
178.996,26.39051,-0.09336333,0.35775,1.03001
179.596,26.44775,-0.09397,0.35605,1.02991
180.196,26.50469,-0.09459662,0.35839,1.0298
180.796,26.56169,-0.0953506,0.35967,1.0297
181.396,26.6184,-0.09661,0.35858,1.02959
181.996,26.67513,-0.09792259,0.3587,1.02948
182.596,26.73176,-0.09792356,0.36165,1.02937
183.196,26.78828,-0.09924,0.36202,1.02926
183.796,26.84492,-0.09923714,0.3607,1.02914
184.396,26.90148,-0.10229,0.36252,1.02903
184.996,26.95843,-0.1032,0.36442,1.02891
185.596,27.01521,-0.10451,0.36647,1.02879
186.196,27.07226,-0.10571,0.36664,1.02867
186.796,27.12916,-0.10584,0.36629,1.02855
187.396,27.18596,-0.10798,0.36886,1.02843
187.996,27.24263,-0.1111,0.36896,1.02831
188.596,27.29894,-0.11111,0.37141,1.02818
189.196,27.35571,-0.11242,0.37088,1.02806
189.796,27.41245,-0.11384,0.37358,1.02793
190.396,27.46907,-0.11507,0.37377,1.0278
190.996,27.52615,-0.11773,0.37393,1.02767
191.596,27.58292,-0.11903,0.37594,1.02754
192.196,27.63984,-0.12032,0.37657,1.0274
192.796,27.69674,-0.12122,0.3783,1.02727
193.396,27.75345,-0.12215,0.37947,1.02713
193.996,27.81027,-0.12299,0.38072,1.02699
194.596,27.86714,-0.12481,0.38026,1.02685
195.196,27.92388,-0.12637,0.38251,1.02671
195.796,27.98072,-0.12842,0.38272,1.02657
196.396,28.0374,-0.13031,0.38264,1.02643
196.996,28.09411,-0.13158,0.38587,1.02628
197.596,28.15097,-0.13431,0.38723,1.02613
198.196,28.20781,-0.1358,0.38696,1.02599
198.796,28.2647,-0.13712,0.38846,1.02584
199.396,28.3216,-0.14081,0.38854,1.02569
199.996,28.37847,-0.14251,0.39206,1.02553
200.596,28.43526,-0.14382,0.39297,1.02538
201.196,28.49217,-0.14519,0.39341,1.02523
201.796,28.54891,-0.148,0.39395,1.02507
202.396,28.60574,-0.14941,0.3962,1.02491
202.996,28.66223,-0.15095,0.39903,1.02475
203.596,28.71887,-0.15373,0.40042,1.02459
204.196,28.77557,-0.15518,0.39961,1.02443
204.796,28.83246,-0.15794,0.40289,1.02427
205.396,28.8897,-0.1594,0.40312,1.0241
205.996,28.94642,-0.16088,0.4048,1.02394
206.596,29.00307,-0.16205,0.40544,1.02377
207.196,29.05969,-0.16442,0.40783,1.0236
207.796,29.11635,-0.16692,0.40884,1.02343
208.396,29.17295,-0.16934,0.40884,1.02326
208.996,29.22982,-0.17224,0.41092,1.02309
209.596,29.28647,-0.17367,0.41239,1.02291
210.196,29.34316,-0.17664,0.41294,1.02274
210.796,29.39996,-0.17829,0.41509,1.02256
211.396,29.45661,-0.182,0.4141,1.02238
211.996,29.51341,-0.1849,0.4165,1.0222
212.596,29.56997,-0.1863,0.41778,1.02202
213.196,29.6266,-0.18762,0.41797,1.02184
213.796,29.68338,-0.19019,0.41888,1.02166
214.396,29.73993,-0.19168,0.42027,1.02147
214.996,29.79691,-0.19321,0.42103,1.02129
215.596,29.85363,-0.19666,0.42122,1.0211
216.196,29.91029,-0.1985,0.42051,1.02091
216.796,29.96726,-0.20101,0.42006,1.02072
217.396,30.02403,-0.204,0.42092,1.02053
217.996,30.08073,-0.20549,0.42052,1.02034
218.596,30.13737,-0.20823,0.422,1.02014
219.196,30.19409,-0.21101,0.42303,1.01995
219.796,30.25067,-0.2132,0.42273,1.01975
220.396,30.30718,-0.21452,0.42427,1.01955
220.996,30.36388,-0.21684,0.42272,1.01935
221.596,30.42044,-0.21891,0.42506,1.01915
222.196,30.47699,-0.22034,0.42309,1.01895
222.796,30.5337,-0.22318,0.42325,1.01875
223.396,30.59042,-0.22583,0.42284,1.01854
223.996,30.64717,-0.2281,0.42176,1.01834
224.596,30.70376,-0.22933,0.4212,1.01813
225.196,30.76047,-0.2318,0.42303,1.01792
225.796,30.81672,-0.23352,0.42178,1.01771
226.396,30.8732,-0.23531,0.42076,1.0175
226.996,30.92983,-0.23691,0.42009,1.01729
227.596,30.98622,-0.23829,0.41899,1.01707
228.196,31.04333,-0.24118,0.42014,1.01686
228.796,31.09994,-0.24437,0.42132,1.01664
229.396,31.15679,-0.24614,0.42088,1.01643
229.996,31.21342,-0.24796,0.42122,1.01621
230.596,31.27009,-0.25031,0.4195,1.01599
231.196,31.32688,-0.25307,0.4191,1.01577
231.796,31.38368,-0.25459,0.41837,1.01554
232.396,31.44059,-0.25604,0.41878,1.01532
232.996,31.49739,-0.25904,0.4177,1.01509
233.596,31.55421,-0.25973,0.41688,1.01487
234.196,31.61108,-0.26151,0.41552,1.01464
234.796,31.66802,-0.26211,0.41563,1.01441
235.396,31.72494,-0.26502,0.41757,1.01418
235.996,31.78181,-0.26739,0.41727,1.01395
236.596,31.83859,-0.26779,0.41531,1.01372
237.196,31.89538,-0.26965,0.41425,1.01348
237.796,31.95207,-0.27114,0.41498,1.01325
238.396,32.00839,-0.27206,0.41551,1.01301
238.996,32.06519,-0.27359,0.41567,1.01278
239.596,32.12207,-0.27572,0.41714,1.01254
240.196,32.17929,-0.27621,0.41583,1.0123
240.796,32.23649,-0.27753,0.41618,1.01206
241.396,32.29341,-0.27885,0.41668,1.01181
241.996,32.35015,-0.27885,0.41557,1.01157
242.596,32.40689,-0.28025,0.41601,1.01133
243.196,32.4636,-0.28192,0.41731,1.01108
243.796,32.52032,-0.28325,0.41684,1.01083
244.396,32.57711,-0.28336,0.41763,1.01058
244.996,32.6339,-0.28477,0.41735,1.01033
245.596,32.69082,-0.28695,0.41806,1.01008
246.196,32.74785,-0.28719,0.41885,1.00983
246.796,32.80486,-0.28851,0.41811,1.00958
247.396,32.86184,-0.28846,0.41885,1.00932
247.996,32.91863,-0.28982,0.4196,1.00907
248.596,32.97544,-0.29083,0.41835,1.00881
249.196,33.03221,-0.29213,0.42115,1.00855
249.796,33.08867,-0.29331,0.42242,1.00829
250.396,33.14545,-0.29383,0.42264,1.00803
250.996,33.20203,-0.29477,0.4222,1.00777
251.596,33.25905,-0.29475,0.42095,1.00751
252.196,33.31593,-0.29476,0.42437,1.00725
252.796,33.37288,-0.29644,0.42469,1.00698
253.396,33.42979,-0.29872,0.42623,1.00671
253.996,33.48654,-0.29889,0.42633,1.00645
254.596,33.54358,-0.29905,0.42408,1.00618
255.196,33.60054,-0.29904,0.42428,1.00591
255.796,33.65754,-0.30034,0.42792,1.00564
256.396,33.71456,-0.30296,0.42891,1.00537
256.996,33.77129,-0.303,0.42947,1.00509
257.596,33.82814,-0.30431,0.43154,1.00482
258.196,33.88489,-0.30431,0.43159,1.00454
258.796,33.94167,-0.30504,0.43305,1.00427
259.396,33.99856,-0.30629,0.43415,1.00399
259.996,34.05553,-0.30761,0.43492,1.00371
260.596,34.1126,-0.30761,0.43597,1.00343
261.196,34.16959,-0.30791,0.43665,1.00315
261.796,34.22651,-0.30893,0.43658,1.00287
262.396,34.28341,-0.31025,0.43973,1.00258
262.996,34.34032,-0.31156,0.44025,1.0023
263.596,34.39726,-0.31183,0.44179,1.00201
264.196,34.45424,-0.31313,0.44485,1.00173
264.796,34.51134,-0.3142,0.44605,1.00144
265.396,34.56847,-0.31571,0.44621,1.00115
265.996,34.62562,-0.3172,0.44755,1.00086
266.596,34.68273,-0.31862,0.44855,1.00057
267.196,34.73981,-0.32044,0.45027,1.00028
267.796,34.79699,-0.31995,0.45223,0.99998
268.396,34.85411,-0.32073,0.45559,0.99969
268.996,34.91125,-0.32249,0.45697,0.99939
269.596,34.96835,-0.32484,0.46016,0.9991
270.196,35.02541,-0.32748,0.46259,0.9988
270.796,35.08259,-0.32777,0.46576,0.9985
271.396,35.13984,-0.32923,0.4681,0.9982
271.996,35.1971,-0.33279,0.47189,0.9979
272.596,35.25421,-0.33429,0.47378,0.9976
273.196,35.31153,-0.33561,0.47804,0.99729
273.796,35.36872,-0.33631,0.47969,0.99699
274.396,35.42599,-0.33785,0.48506,0.99668
274.996,35.48328,-0.33906,0.48852,0.99638
275.596,35.54036,-0.34146,0.49051,0.99607
276.196,35.59759,-0.34319,0.49469,0.99576
276.796,35.65477,-0.34614,0.49679,0.99545
277.396,35.71196,-0.34752,0.50002,0.99514
277.996,35.76919,-0.35028,0.50527,0.99483
278.596,35.82626,-0.35162,0.50687,0.99452
279.196,35.88334,-0.35462,0.51348,0.9942
279.796,35.94077,-0.35749,0.51721,0.99389
280.396,35.99809,-0.35885,0.52133,0.99357
280.996,36.0557,-0.36208,0.52588,0.99326
281.596,36.11299,-0.36407,0.53075,0.99294
282.196,36.17026,-0.36656,0.53435,0.99262
282.796,36.22767,-0.36957,0.54106,0.9923
283.396,36.28521,-0.3724,0.54344,0.99198
283.996,36.34265,-0.37459,0.54795,0.99166
284.596,36.40017,-0.37899,0.55238,0.99133
285.196,36.45781,-0.38121,0.55581,0.99101
285.796,36.51547,-0.38555,0.56065,0.99068
286.396,36.57321,-0.38888,0.56677,0.99036
286.996,36.63082,-0.39215,0.57225,0.99003
287.596,36.68855,-0.39523,0.57312,0.9897
288.196,36.74621,-0.39866,0.57887,0.98937
288.796,36.80365,-0.40254,0.58285,0.98904
289.396,36.86149,-0.40636,0.5868,0.98871
289.996,36.91925,-0.4105,0.59141,0.98838
290.596,36.97736,-0.41362,0.59458,0.98805
291.196,37.03558,-0.41885,0.60055,0.98771
291.796,37.09355,-0.42179,0.60196,0.98738
292.396,37.15149,-0.4256,0.60607,0.98704
292.996,37.20922,-0.4309,0.60834,0.9867
293.596,37.26718,-0.43578,0.61299,0.98637
294.196,37.32526,-0.43935,0.61645,0.98603
294.796,37.38321,-0.44491,0.61928,0.98569
295.396,37.44114,-0.44908,0.62467,0.98535
295.996,37.49878,-0.45377,0.62612,0.985
296.596,37.55647,-0.45875,0.62781,0.98466
297.196,37.61408,-0.46327,0.63022,0.98432
297.796,37.67163,-0.46913,0.63329,0.98397
298.396,37.72905,-0.47455,0.63701,0.98363
298.996,37.78662,-0.48041,0.63834,0.98328
299.596,37.84423,-0.48546,0.63729,0.98293
300.196,37.90194,-0.49084,0.64023,0.98258
300.796,37.95939,-0.49682,0.64053,0.98223
301.396,38.01684,-0.50288,0.6427,0.98188
301.996,38.07415,-0.50929,0.64335,0.98153
302.596,38.13159,-0.51555,0.64395,0.98118
303.196,38.1888,-0.5217,0.64315,0.98083
303.796,38.24603,-0.5271,0.6451,0.98047
304.396,38.30321,-0.5326,0.64459,0.98012
304.996,38.36035,-0.53941,0.64587,0.97976
305.596,38.41763,-0.54601,0.64381,0.9794
306.196,38.47478,-0.55293,0.64358,0.97905
306.796,38.53203,-0.5598,0.6432,0.97869
307.396,38.58918,-0.5675,0.64301,0.97833
307.996,38.64635,-0.57481,0.64109,0.97797
308.596,38.70337,-0.58215,0.64197,0.9776
309.196,38.7603,-0.58782,0.64105,0.97724
309.796,38.81728,-0.59597,0.64002,0.97688
310.396,38.87432,-0.60295,0.63887,0.97651
310.996,38.93126,-0.61127,0.63723,0.97615
311.596,38.98839,-0.61965,0.63652,0.97578
312.196,39.04533,-0.62598,0.6359,0.97542
312.796,39.1025,-0.63407,0.634,0.97505
313.396,39.1596,-0.64277,0.63343,0.97468
313.996,39.21681,-0.65194,0.63056,0.97431
314.596,39.27397,-0.65944,0.62962,0.97394
315.196,39.33109,-0.66764,0.62792,0.97357
315.796,39.38831,-0.67911,0.62556,0.97319
316.396,39.44554,-0.68782,0.62276,0.97282
316.996,39.5028,-0.69643,0.6209,0.97245
317.596,39.55997,-0.70557,0.61892,0.97207
318.196,39.61705,-0.71426,0.61688,0.9717
318.796,39.67414,-0.72369,0.61401,0.97132
319.396,39.73139,-0.73307,0.61293,0.97094
319.996,39.78857,-0.7439,0.61054,0.97056
320.596,39.84559,-0.7543,0.60654,0.97018
321.196,39.90288,-0.76332,0.60552,0.9698
321.796,39.96029,-0.77388,0.60341,0.96942
322.396,40.01791,-0.78503,0.60079,0.96904
322.996,40.07513,-0.79594,0.59852,0.96866
323.596,40.13241,-0.80624,0.59657,0.96828
324.196,40.18959,-0.81803,0.59156,0.96789
324.796,40.24703,-0.82856,0.59218,0.96751
325.396,40.30449,-0.83929,0.58707,0.96712
325.996,40.36174,-0.85069,0.58475,0.96673
326.596,40.4189,-0.86289,0.58239,0.96635
327.196,40.47616,-0.87553,0.5788,0.96596
327.796,40.53337,-0.88697,0.57834,0.96557
328.396,40.59067,-0.8999,0.57395,0.96518
328.996,40.64807,-0.91228,0.57199,0.96479
329.596,40.70537,-0.92651,0.56759,0.9644
330.196,40.76288,-0.94055,0.564,0.964
330.796,40.8203,-0.95429,0.56324,0.96361
331.396,40.87774,-0.96832,0.55951,0.96322
331.996,40.93521,-0.98296,0.55646,0.96282
332.596,40.9927,-0.9978,0.55222,0.96243
333.196,41.05018,-1.0119,0.55029,0.96203
333.796,41.10758,-1.027,0.5476,0.96163
334.396,41.1649,-1.04389,0.54211,0.96123
334.996,41.22223,-1.05994,0.53803,0.96083
335.596,41.27962,-1.0742,0.53534,0.96044
336.196,41.33704,-1.09214,0.53085,0.96003
336.796,41.39447,-1.10846,0.52586,0.95963
337.396,41.45198,-1.12527,0.52169,0.95923
337.996,41.5096,-1.14313,0.51778,0.95883
338.596,41.56741,-1.16247,0.51084,0.95843
339.196,41.62498,-1.18028,0.50673,0.95802
339.796,41.68264,-1.20019,0.5033,0.95762
340.396,41.74012,-1.21994,0.49623,0.95721
340.996,41.79757,-1.2387,0.49219,0.9568
341.596,41.85497,-1.25908,0.48836,0.9564
342.196,41.91233,-1.27921,0.48174,0.95599
342.796,41.96952,-1.29853,0.47483,0.95558
343.396,42.02691,-1.32027,0.46986,0.95517
343.996,42.08437,-1.34267,0.4624,0.95476
344.596,42.14194,-1.36375,0.45886,0.95435
345.196,42.1996,-1.38364,0.45033,0.95394
345.796,42.25699,-1.40621,0.44436,0.95353
346.396,42.31432,-1.42837,0.43811,0.95311
346.996,42.37112,-1.45131,0.42958,0.9527
347.596,42.42825,-1.47456,0.42156,0.95228
348.196,42.48551,-1.49803,0.41438,0.95187
348.796,42.54288,-1.51913,0.40548,0.95145
349.396,42.60062,-1.5414,0.39308,0.95104
349.996,42.65775,-1.56457,0.38557,0.95062
350.596,42.71494,-1.58722,0.37416,0.9502
351.196,42.77211,-1.61006,0.36223,0.94978
351.796,42.82927,-1.63326,0.35157,0.94936
352.396,42.88648,-1.65663,0.34015,0.94894
352.996,42.94373,-1.67797,0.32837,0.94852
353.596,43.00099,-1.70055,0.31663,0.9481
354.196,43.05828,-1.72412,0.30477,0.94768
354.796,43.11557,-1.74636,0.29181,0.94725
355.396,43.17284,-1.76829,0.27936,0.94683
355.996,43.22997,-1.78934,0.26722,0.94641
356.596,43.28704,-1.81101,0.25479,0.94598
357.196,43.34408,-1.83135,0.24305,0.94555
357.796,43.40116,-1.85277,0.2303,0.94513
358.396,43.45807,-1.87449,0.21414,0.9447
358.996,43.51485,-1.89459,0.20325,0.94427
359.596,43.57185,-1.91451,0.19126,0.94385
360.196,43.62906,-1.93449,0.18044,0.94342
360.796,43.68631,-1.95399,0.17017,0.94299
361.396,43.74377,-1.97325,0.15702,0.94256
361.996,43.80093,-1.9884,0.1451,0.94212
362.596,43.85819,-2.00798,0.13588,0.94169
363.196,43.91545,-2.02658,0.12515,0.94126
363.796,43.97271,-2.04306,0.11489,0.94083
364.396,44.03022,-2.06038,0.10616,0.94039
364.996,44.08752,-2.0775,0.09951511,0.93996
365.596,44.14505,-2.09401,0.09149864,0.93952
366.196,44.20247,-2.10889,0.08356887,0.93909
366.796,44.25995,-2.12374,0.07797859,0.93865
367.396,44.31749,-2.13803,0.07143766,0.93822
367.996,44.37493,-2.15303,0.06525883,0.93778
368.596,44.43231,-2.16749,0.06207035,0.93734
369.196,44.48985,-2.18059,0.05745616,0.9369
369.796,44.54729,-2.19425,0.0537973,0.93646
370.396,44.60484,-2.20713,0.05256399,0.93602
370.996,44.66229,-2.21919,0.04712581,0.93558
371.596,44.71975,-2.23021,0.04699708,0.93514
372.196,44.77728,-2.24062,0.04589432,0.9347
372.796,44.83482,-2.25315,0.04517951,0.93426
373.396,44.8924,-2.26236,0.04294131,0.93381
373.996,44.95014,-2.27373,0.04397882,0.93337
374.596,45.00787,-2.2848,0.04463328,0.93293
375.196,45.06568,-2.29498,0.04355425,0.93248
375.796,45.12291,-2.30491,0.0437761,0.93204
376.396,45.18046,-2.31362,0.04512559,0.93159
376.996,45.23825,-2.32358,0.04532296,0.93114
377.596,45.29594,-2.32965,0.04556675,0.9307
378.196,45.35397,-2.33802,0.04726191,0.93025
378.796,45.41163,-2.34797,0.04808531,0.9298
379.396,45.46928,-2.35253,0.04870295,0.92935
379.996,45.52728,-2.36044,0.04940602,0.9289
380.596,45.58523,-2.36827,0.05152059,0.92845
381.196,45.64319,-2.37559,0.05221749,0.928
381.796,45.70119,-2.38243,0.05228821,0.92755
382.396,45.75923,-2.38709,0.0546879,0.9271
382.996,45.81713,-2.39478,0.05520488,0.92665
383.596,45.87526,-2.4014,0.0562532,0.92619
384.196,45.93344,-2.40812,0.05709131,0.92574
384.796,45.99162,-2.41252,0.05950273,0.92529
385.396,46.04987,-2.4163,0.05967166,0.92483
385.996,46.108,-2.42378,0.06330027,0.92438
386.596,46.1662,-2.42947,0.06110501,0.92392
387.196,46.22452,-2.43371,0.06315155,0.92347
387.796,46.28277,-2.43814,0.06292693,0.92301
388.396,46.34117,-2.44291,0.06548172,0.92255
388.996,46.39953,-2.44902,0.0659393,0.9221
389.596,46.45795,-2.45371,0.06624743,0.92164
390.196,46.5162,-2.45806,0.06666048,0.92118
390.796,46.57449,-2.46174,0.06860367,0.92072
391.396,46.63262,-2.46523,0.06915156,0.92026
391.996,46.69114,-2.46943,0.0721176,0.9198
392.596,46.7495,-2.47427,0.07143596,0.91934
393.196,46.80811,-2.47732,0.06978188,0.91888
393.796,46.86658,-2.48265,0.06806679,0.91842
394.396,46.92505,-2.48603,0.06771305,0.91795
394.996,46.98357,-2.48936,0.06910317,0.91749
395.596,47.04205,-2.49312,0.06941504,0.91703
396.196,47.10031,-2.49616,0.06867133,0.91656
396.796,47.15852,-2.5007,0.06879657,0.9161
397.396,47.21683,-2.50474,0.06931481,0.91564
397.996,47.27514,-2.50778,0.06770367,0.91517
398.596,47.33382,-2.51152,0.06910462,0.9147
399.196,47.39215,-2.51482,0.06788854,0.91424
399.796,47.45065,-2.51775,0.06779671,0.91377
400.396,47.50916,-2.52116,0.0679337,0.9133
400.996,47.56755,-2.52365,0.06840172,0.91284
401.596,47.62587,-2.52665,0.06775212,0.91237
402.196,47.6843,-2.52992,0.06915387,0.9119
402.796,47.74266,-2.5327,0.06718225,0.91143
403.396,47.80103,-2.53596,0.06740967,0.91096
403.996,47.85944,-2.53852,0.06590552,0.91049
404.596,47.91775,-2.54162,0.06471803,0.91002
405.196,47.97608,-2.54524,0.06576317,0.90955
405.796,48.03446,-2.54829,0.06505943,0.90908
406.396,48.0928,-2.55108,0.06401433,0.90861
406.996,48.15133,-2.55469,0.06212066,0.90814
407.596,48.2098,-2.55795,0.06294384,0.90766
408.196,48.26796,-2.5608,0.06457284,0.90719
408.796,48.32643,-2.56224,0.07056816,0.90672
409.396,48.38489,-2.5654,0.07157188,0.90624
409.996,48.44348,-2.56847,0.07361369,0.90577
410.596,48.50234,-2.57157,0.07547532,0.90529
411.196,48.56084,-2.57311,0.07740778,0.90482
411.796,48.6193,-2.57466,0.07810566,0.90434
412.396,48.67781,-2.57875,0.07775255,0.90387
412.996,48.73638,-2.58087,0.0790378,0.90339
413.596,48.79492,-2.58396,0.0795566,0.90291
414.196,48.85338,-2.5867,0.07936063,0.90244
414.796,48.91163,-2.58972,0.08040064,0.90196
415.396,48.97007,-2.59188,0.07603338,0.90148
415.996,49.02842,-2.59472,0.07403646,0.901
416.596,49.08678,-2.59747,0.06712396,0.90052
417.196,49.14519,-2.59934,0.06497873,0.90004
417.796,49.20352,-2.60197,0.06089243,0.89956
418.396,49.26196,-2.60548,0.05790632,0.89908
418.996,49.3205,-2.60833,0.05712874,0.8986
419.596,49.37903,-2.61044,0.05643251,0.89812
420.196,49.43722,-2.61171,0.05473335,0.89764
420.796,49.49553,-2.61461,0.05459428,0.89716
421.396,49.55401,-2.61767,0.05632393,0.89668
421.996,49.61238,-2.62054,0.056342,0.8962
422.596,49.67127,-2.62384,0.05945013,0.89571
423.196,49.72978,-2.62667,0.0679205,0.89523
423.796,49.78825,-2.62787,0.07152322,0.89475
424.396,49.84693,-2.62936,0.07392811,0.89426
424.996,49.90547,-2.63236,0.07546552,0.89378
425.596,49.96398,-2.63543,0.07656206,0.89329
426.196,50.02254,-2.63729,0.07577299,0.89281
426.796,50.08105,-2.64031,0.07396716,0.89232
427.396,50.13929,-2.64315,0.07069552,0.89184
427.996,50.19777,-2.64512,0.06486865,0.89135
428.596,50.25635,-2.64779,0.05899886,0.89086
429.196,50.31494,-2.65049,0.05633087,0.89038
429.796,50.3737,-2.6524,0.05320006,0.88989
430.396,50.43225,-2.65479,0.05312583,0.8894
430.996,50.49083,-2.65784,0.05071123,0.88892
431.596,50.54952,-2.66044,0.05033503,0.88843
432.196,50.60813,-2.6626,0.04895058,0.88794
432.796,50.66657,-2.6653,0.04875621,0.88745
433.396,50.72496,-2.66849,0.04934031,0.88696
433.996,50.78331,-2.67176,0.05008831,0.88647
434.596,50.84184,-2.67353,0.05109144,0.88598
435.196,50.90032,-2.67676,0.05114976,0.88549
435.796,50.95871,-2.67937,0.05137125,0.885
436.396,51.01734,-2.6808,0.05060631,0.88451
436.996,51.07581,-2.68319,0.05081771,0.88402
437.596,51.13423,-2.68573,0.04918078,0.88353
438.196,51.19277,-2.68871,0.0505512,0.88304
438.796,51.25125,-2.69076,0.05002386,0.88254
439.396,51.30983,-2.69341,0.04895528,0.88205
439.996,51.36844,-2.69522,0.04956081,0.88156
440.596,51.42703,-2.69815,0.04821076,0.88107
441.196,51.48552,-2.70134,0.04668107,0.88057
441.796,51.54421,-2.70342,0.04754819,0.88008
442.396,51.6027,-2.7065,0.04756051,0.87959
442.996,51.66118,-2.70878,0.04715939,0.87909
443.596,51.7196,-2.71217,0.04536897,0.8786
444.196,51.77772,-2.7152,0.04548835,0.8781
444.796,51.83615,-2.71646,0.04484461,0.87761
445.396,51.89452,-2.71976,0.04443614,0.87711
445.996,51.9532,-2.72274,0.04410755,0.87662
446.596,52.01186,-2.72544,0.04631398,0.87612
447.196,52.07056,-2.72797,0.04330013,0.87563
447.796,52.1291,-2.73191,0.04325575,0.87513
448.396,52.18767,-2.73514,0.04521538,0.87463
448.996,52.24635,-2.73707,0.04225796,0.87414
449.596,52.30492,-2.73953,0.04255025,0.87364
450.196,52.36342,-2.74142,0.04100313,0.87314
450.796,52.42204,-2.74469,0.04195458,0.87264
451.396,52.48073,-2.74776,0.04163984,0.87215
451.996,52.53964,-2.7499,0.04086178,0.87165
452.596,52.59839,-2.75227,0.04043527,0.87115
453.196,52.65712,-2.75559,0.03951689,0.87065
453.796,52.71589,-2.75888,0.0405498,0.87015
454.396,52.77461,-2.76132,0.03918751,0.86965
454.996,52.83324,-2.76352,0.03871581,0.86915
455.596,52.892,-2.76642,0.03945613,0.86865
456.196,52.95088,-2.76948,0.03983851,0.86815
456.796,53.00981,-2.77331,0.03904406,0.86765
457.396,53.06887,-2.77581,0.0410176,0.86715
457.996,53.12783,-2.77712,0.03952513,0.86665
458.596,53.1866,-2.78069,0.03945045,0.86615
459.196,53.24544,-2.78457,0.03760545,0.86565
459.796,53.30415,-2.78597,0.03563132,0.86515
460.396,53.36284,-2.78874,0.03608927,0.86465
460.996,53.42167,-2.79031,0.03550426,0.86415
461.596,53.48063,-2.79328,0.0346436,0.86365
462.196,53.53962,-2.79779,0.03415985,0.86314
462.796,53.59849,-2.79985,0.03387837,0.86264
463.396,53.65747,-2.80382,0.03704338,0.86214
463.996,53.71626,-2.80778,0.03559612,0.86164
464.596,53.7752,-2.80901,0.03622131,0.86113
465.196,53.83415,-2.81237,0.03629153,0.86063
465.796,53.89314,-2.81529,0.03554216,0.86013
466.396,53.95212,-2.81688,0.03638223,0.85962
466.996,54.01106,-2.81891,0.03464703,0.85912
467.596,54.07004,-2.82284,0.0344985,0.85862
468.196,54.12884,-2.82641,0.03543412,0.85811
468.796,54.18758,-2.83057,0.03280595,0.85761
469.396,54.24653,-2.83315,0.03458686,0.8571
469.996,54.30545,-2.83591,0.03596194,0.8566
470.596,54.36485,-2.83886,0.03552505,0.85609
471.196,54.42384,-2.8417,0.03387839,0.85559
471.796,54.48268,-2.84476,0.03429143,0.85508
472.396,54.54147,-2.84721,0.03388313,0.85458
472.996,54.60027,-2.84963,0.03287329,0.85407
473.596,54.65918,-2.8526,0.03148481,0.85357
474.196,54.71834,-2.85574,0.03101208,0.85306
474.796,54.77743,-2.85874,0.03137667,0.85256
475.396,54.83656,-2.8611,0.03002086,0.85205
475.996,54.89555,-2.86543,0.0295443,0.85154
476.596,54.95479,-2.86805,0.02959626,0.85104
477.196,55.01382,-2.87152,0.02933838,0.85053
477.796,55.07292,-2.87469,0.0295607,0.85002
478.396,55.13205,-2.87714,0.02971281,0.84952
478.996,55.19083,-2.87949,0.02741707,0.84901
479.596,55.24999,-2.8818,0.02829998,0.8485
480.196,55.30917,-2.88444,0.02868178,0.848
480.796,55.36857,-2.8875,0.02953766,0.84749
481.396,55.42763,-2.89139,0.02699828,0.84698
481.996,55.48616,-2.89376,0.02555549,0.84647
482.596,55.54504,-2.89707,0.02588036,0.84597
483.196,55.60411,-2.90014,0.02619572,0.84546
483.796,55.66374,-2.90284,0.02592375,0.84495
484.396,55.72339,-2.90538,0.02732026,0.84444
484.996,55.78264,-2.90833,0.02785797,0.84393
485.596,55.84179,-2.91162,0.02713438,0.84343
486.196,55.90083,-2.91362,0.02789485,0.84292
486.796,55.95992,-2.91748,0.02896427,0.84241
487.396,56.01909,-2.9199,0.02953882,0.8419
487.996,56.07823,-2.92267,0.02699805,0.84139
488.596,56.13737,-2.92614,0.02790652,0.84088
489.196,56.19648,-2.92918,0.02887531,0.84037
489.796,56.25553,-2.93134,0.04237349,0.83986
490.396,56.31479,-2.93298,0.04907339,0.83935
490.996,56.3739,-2.93569,0.05284456,0.83884
491.596,56.43314,-2.939,0.0586314,0.83834
492.196,56.49235,-2.94034,0.05872425,0.83783
492.796,56.55144,-2.94361,0.06053228,0.83732
493.396,56.61065,-2.94648,0.05990483,0.83681
493.996,56.66963,-2.948,0.06274923,0.8363
494.596,56.72871,-2.9508,0.06334398,0.83579
495.196,56.78789,-2.95253,0.06635089,0.83528
495.796,56.84675,-2.95514,0.06266668,0.83477
496.396,56.90584,-2.95731,0.06260744,0.83426
496.996,56.96494,-2.95953,0.06295336,0.83375
497.596,57.02415,-2.96244,0.06398698,0.83324
498.196,57.08363,-2.96485,0.06476852,0.83272
498.796,57.14287,-2.96571,0.06421556,0.83221
499.396,57.20202,-2.96659,0.06332057,0.8317
499.996,57.26126,-2.96891,0.06332,0.83119
500.596,57.32063,-2.97193,0.06000979,0.83068
501.196,57.38004,-2.97457,0.06157666,0.83017
501.796,57.43953,-2.97655,0.059531,0.82966
502.396,57.49886,-2.97783,0.05779966,0.82915
502.996,57.55817,-2.98072,0.05614914,0.82864
503.596,57.61751,-2.98223,0.05630957,0.82813
504.196,57.67689,-2.98335,0.05610516,0.82762
504.796,57.73639,-2.98474,0.05391741,0.82711
505.396,57.79579,-2.98745,0.0534067,0.82659
505.996,57.85535,-2.98873,0.05230543,0.82608
506.596,57.91457,-2.99136,0.0535059,0.82557
507.196,57.97408,-2.99311,0.05384124,0.82506
507.796,58.03371,-2.99457,0.05225889,0.82455
508.396,58.09337,-2.99664,0.05113754,0.82404
508.996,58.1531,-2.99847,0.053074,0.82353
509.596,58.21269,-3.00071,0.05179255,0.82302
510.196,58.27214,-3.00251,0.05281267,0.8225
510.796,58.3317,-3.00388,0.05069822,0.82199
511.396,58.39129,-3.00521,0.05170586,0.82148
511.996,58.45089,-3.00818,0.04931343,0.82097
512.596,58.51055,-3.00946,0.0509384,0.82046
513.196,58.57004,-3.00916,0.04912176,0.81995
513.796,58.62935,-3.01146,0.04960082,0.81943
514.396,58.68861,-3.01413,0.04980087,0.81892
514.996,58.74796,-3.01549,0.0573895,0.81841
515.596,58.8073,-3.01702,0.06054897,0.8179
516.196,58.86687,-3.0188,0.06251084,0.81739
516.796,58.9263,-3.02013,0.06976785,0.81688
517.396,58.98585,-3.02145,0.07612058,0.81636
517.996,59.04522,-3.02278,0.08164551,0.81585
518.596,59.10459,-3.0247,0.08479183,0.81534
519.196,59.16377,-3.02605,0.08817015,0.81483
519.796,59.22306,-3.02736,0.09280716,0.81432
520.396,59.28244,-3.02871,0.09169053,0.81381
520.996,59.34202,-3.02935,0.09027226,0.81329
521.596,59.40147,-3.03009,0.08986996,0.81278
522.196,59.4608,-3.03141,0.09031746,0.81227
522.796,59.52025,-3.03398,0.08920351,0.81176
523.396,59.57958,-3.03526,0.0896408,0.81125
523.996,59.63904,-3.0356,0.08833473,0.81073
524.596,59.69884,-3.0366,0.08872025,0.81022
525.196,59.75842,-3.03836,0.08849293,0.80971
525.796,59.81823,-3.04054,0.08520549,0.8092
526.396,59.87779,-3.04199,0.08246153,0.80869
526.996,59.93727,-3.04272,0.08277975,0.80818
527.596,59.99642,-3.04315,0.07901027,0.80767
528.196,60.05589,-3.04449,0.07705826,0.80715
528.796,60.11528,-3.04581,0.076557,0.80664
529.396,60.17473,-3.04714,0.07299964,0.80613
529.996,60.23457,-3.04846,0.0724299,0.80562
530.596,60.29414,-3.04977,0.06901421,0.80511
531.196,60.35344,-3.05109,0.06628993,0.8046
531.796,60.41248,-3.05231,0.06173522,0.80409
532.396,60.4718,-3.05236,0.06161317,0.80357
532.996,60.53138,-3.05373,0.05644199,0.80306
533.596,60.59105,-3.05505,0.0544785,0.80255
534.196,60.65074,-3.05636,0.05380609,0.80204
534.796,60.7102,-3.05702,0.05264582,0.80153
535.396,60.76963,-3.05834,0.05173661,0.80102
535.996,60.829,-3.05965,0.05159419,0.80051
536.596,60.88861,-3.06108,0.05257748,0.8
537.196,60.94812,-3.06108,0.05333737,0.79948
537.796,61.00767,-3.06196,0.05137626,0.79897
538.396,61.06724,-3.06327,0.04953487,0.79846
538.996,61.12677,-3.06458,0.04922711,0.79795
539.596,61.18639,-3.06572,0.04676508,0.79744
540.196,61.246,-3.0663,0.04562351,0.79693
540.796,61.3055,-3.06723,0.04103812,0.79642
541.396,61.36502,-3.06854,0.04038724,0.79591
541.996,61.42447,-3.06986,0.03927971,0.7954
542.596,61.48397,-3.06984,0.03679743,0.79489
543.196,61.54358,-3.07118,0.03247773,0.79438
543.796,61.60311,-3.07252,0.03186169,0.79387
544.396,61.66269,-3.07221,0.02604378,0.79336
544.996,61.72226,-3.07249,0.02484028,0.79285
545.596,61.78199,-3.07381,0.01966539,0.79234
546.196,61.84126,-3.07381,0.01754723,0.79183
546.796,61.90054,-3.07513,0.01081336,0.79132
547.396,61.95976,-3.07645,-0.007068388,0.79081
547.996,62.01886,-3.07772,-0.03438661,0.7903
548.596,62.07819,-3.077,-0.05193906,0.78979
549.196,62.13747,-3.07776,-0.06980851,0.78928
549.796,62.19679,-3.07908,-0.07802041,0.78877
550.396,62.25636,-3.07913,-0.08791127,0.78826
550.996,62.31598,-3.0804,-0.08925691,0.78775
551.596,62.37565,-3.08306,-0.09769074,0.78724
552.196,62.4352,-3.08303,-0.10557,0.78673
552.796,62.49477,-3.08303,-0.10807,0.78623
553.396,62.55456,-3.08336,-0.11504,0.78572
553.996,62.61429,-3.08304,-0.11808,0.78521
554.596,62.67404,-3.08557,-0.12127,0.7847
555.196,62.73381,-3.08699,-0.12412,0.78419
555.796,62.79341,-3.08668,-0.1286,0.78368
556.396,62.85324,-3.08699,-0.13143,0.78317
556.996,62.91303,-3.087,-0.13549,0.78267
557.596,62.97285,-3.088,-0.13967,0.78216
558.196,63.03276,-3.0904,-0.14371,0.78165
558.796,63.09243,-3.09038,-0.14827,0.78114
559.396,63.15215,-3.09168,-0.14976,0.78064
559.996,63.2119,-3.09192,-0.15064,0.78013
560.596,63.27174,-3.09302,-0.15215,0.77962
561.196,63.33168,-3.09171,-0.15342,0.77911
561.796,63.39126,-3.09303,-0.15302,0.77861
562.396,63.45118,-3.09434,-0.15474,0.7781
562.996,63.51101,-3.09565,-0.15515,0.77759
563.596,63.57094,-3.09599,-0.15478,0.77709
564.196,63.63093,-3.09599,-0.15812,0.77658
564.796,63.69056,-3.09467,-0.16022,0.77607
565.396,63.7503,-3.09689,-0.16107,0.77557
565.996,63.81023,-3.09852,-0.16443,0.77506
566.596,63.87043,-3.0972,-0.16668,0.77455
567.196,63.93018,-3.09855,-0.16763,0.77405
567.796,63.98997,-3.09983,-0.17073,0.77354
568.396,64.04978,-3.09983,-0.17208,0.77304
568.996,64.10963,-3.09983,-0.17272,0.77253
569.596,64.16979,-3.10115,-0.17632,0.77202
570.196,64.23006,-3.10247,-0.17619,0.77152
570.796,64.29081,-3.1029,-0.17816,0.77101
571.396,64.35098,-3.1028,-0.17847,0.77051
571.996,64.41138,-3.1028,-0.18116,0.77
572.596,64.4718,-3.10411,-0.18187,0.7695
573.196,64.5324,-3.10411,-0.18319,0.769
573.796,64.5927,-3.10542,-0.18652,0.76849
574.396,64.65288,-3.10543,-0.18769,0.76799
574.996,64.7132,-3.10541,-0.19267,0.76748
575.596,64.77367,-3.10675,-0.1943,0.76698
576.196,64.83427,-3.10675,-0.19619,0.76647
576.796,64.89447,-3.10734,-0.19944,0.76597
577.396,64.95466,-3.10806,-0.20083,0.76547
577.996,65.01484,-3.10806,-0.20302,0.76496
578.596,65.07505,-3.10905,-0.20619,0.76446
579.196,65.13559,-3.10905,-0.20931,0.76396
579.796,65.19569,-3.10905,-0.21178,0.76346
580.396,65.25585,-3.11013,-0.21653,0.76295
580.996,65.31611,-3.11037,-0.21829,0.76245
581.596,65.37649,-3.11037,-0.2235,0.76195
582.196,65.43707,-3.11037,-0.22721,0.76145
582.796,65.49725,-3.11168,-0.23473,0.76095
583.396,65.55747,-3.11168,-0.23965,0.76044
583.996,65.61768,-3.11168,-0.24547,0.75994
584.596,65.67791,-3.11168,-0.2482,0.75944
585.196,65.73815,-3.113,-0.25181,0.75894
585.796,65.79845,-3.11402,-0.25559,0.75844
586.396,65.85879,-3.11366,-0.2598,0.75794
586.996,65.91915,-3.11366,-0.2587,0.75744
587.596,65.97933,-3.11301,-0.26189,0.75694
588.196,66.03938,-3.11301,-0.26293,0.75644
588.796,66.09928,-3.11301,-0.2669,0.75594
589.396,66.15919,-3.11368,-0.26529,0.75544
589.996,66.21928,-3.11432,-0.266,0.75494
590.596,66.27936,-3.11434,-0.26543,0.75444
591.196,66.33953,-3.11564,-0.26378,0.75394
591.796,66.39965,-3.11594,-0.26479,0.75344
592.396,66.45987,-3.11564,-0.26209,0.75294
592.996,66.51971,-3.11627,-0.2602,0.75244
593.596,66.57974,-3.11696,-0.26218,0.75194
594.196,66.63974,-3.11828,-0.26032,0.75145
594.796,66.69991,-3.11828,-0.25839,0.75095
595.396,66.76027,-3.11695,-0.25314,0.75045
595.996,66.82038,-3.11696,-0.25171,0.74995
596.596,66.88038,-3.11766,-0.25136,0.74946
597.196,66.94049,-3.11863,-0.24829,0.74896
597.796,67.00053,-3.11896,-0.24579,0.74846
598.396,67.06073,-3.11958,-0.2423,0.74796
598.996,67.12101,-3.12091,-0.23939,0.74747
599.596,67.18132,-3.11992,-0.23906,0.74697
600.196,67.24143,-3.12094,-0.23669,0.74648
600.796,67.30155,-3.12171,-0.23142,0.74598
601.396,67.36154,-3.12223,-0.22944,0.74548
601.996,67.42174,-3.12223,-0.22966,0.74499
602.596,67.48204,-3.12223,-0.22322,0.74449
603.196,67.54227,-3.12223,-0.22117,0.744
603.796,67.60251,-3.12223,-0.21935,0.7435
604.396,67.66273,-3.12322,-0.21807,0.74301
604.996,67.72292,-3.12323,-0.21719,0.74251
605.596,67.78306,-3.12355,-0.21646,0.74202
606.196,67.84301,-3.12449,-0.21463,0.74153
606.796,67.90325,-3.12486,-0.21314,0.74103
607.396,67.96348,-3.12486,-0.21058,0.74054
607.996,68.02372,-3.12486,-0.2106,0.74005
608.596,68.08392,-3.12376,-0.21105,0.73955
609.196,68.14411,-3.12486,-0.20768,0.73906
609.796,68.20441,-3.12486,-0.2087,0.73857
610.396,68.26493,-3.12486,-0.20779,0.73808
610.996,68.32542,-3.12618,-0.20477,0.73758
611.596,68.38576,-3.12618,-0.20487,0.73709
612.196,68.44604,-3.12628,-0.20209,0.7366
612.796,68.50598,-3.12717,-0.20121,0.73611
613.396,68.56612,-3.12717,-0.20006,0.73562
613.996,68.62592,-3.12717,-0.19912,0.73513
614.596,68.68598,-3.12751,-0.19647,0.73464
615.196,68.74606,-3.12881,-0.19249,0.73415
615.796,68.80625,-3.12881,-0.19375,0.73366
616.396,68.86715,-3.12881,-0.19214,0.73317
616.996,68.92776,-3.12881,-0.19009,0.73268
617.596,68.9883,-3.13013,-0.19072,0.73219
618.196,69.04875,-3.13013,-0.19161,0.7317
618.796,69.1091,-3.13013,-0.18785,0.73121
619.396,69.16948,-3.12881,-0.18791,0.73072
619.996,69.22975,-3.13011,-0.18536,0.73023
620.596,69.29006,-3.13013,-0.1876,0.72975
621.196,69.35039,-3.13079,-0.18738,0.72926
621.796,69.41066,-3.13079,-0.1871,0.72877
622.396,69.47122,-3.1321,-0.18518,0.72828
622.996,69.53177,-3.1321,-0.18306,0.7278
623.596,69.59226,-3.13222,-0.18391,0.72731
624.196,69.65268,-3.1321,-0.18277,0.72682
624.796,69.71301,-3.1321,-0.18122,0.72634
625.396,69.77355,-3.1321,-0.17935,0.72585
625.996,69.83409,-3.1321,-0.17767,0.72537
626.596,69.89474,-3.1321,-0.1776,0.72488
627.196,69.95528,-3.13309,-0.17724,0.7244
627.796,70.01596,-3.13441,-0.17793,0.72391
628.396,70.0766,-3.13441,-0.1756,0.72343
628.996,70.13728,-3.13342,-0.17229,0.72294
629.596,70.19779,-3.13474,-0.17132,0.72246
630.196,70.25822,-3.13474,-0.17041,0.72197
630.796,70.31866,-3.13476,-0.16839,0.72149
631.396,70.37933,-3.13332,-0.16644,0.72101
631.996,70.43977,-3.13463,-0.16851,0.72053
632.596,70.50031,-3.13532,-0.16455,0.72004
633.196,70.56087,-3.13594,-0.16076,0.71956
633.796,70.62141,-3.13726,-0.16321,0.71908
634.396,70.68203,-3.13726,-0.15847,0.7186
634.996,70.74248,-3.13726,-0.15917,0.71812
635.596,70.80312,-3.13705,-0.15711,0.71763
636.196,70.86361,-3.13559,-0.15657,0.71715
636.796,70.92417,-3.13694,-0.15342,0.71667
637.396,70.98464,-3.13694,-0.15464,0.71619
637.996,71.04484,-3.13694,-0.15045,0.71571
638.596,71.10521,-3.13826,-0.1511,0.71523
639.196,71.1657,-3.13892,-0.15022,0.71475
639.796,71.22649,-3.13892,-0.14963,0.71427
640.396,71.28687,-3.138,-0.14762,0.71379
640.996,71.34737,-3.1376,-0.1475,0.71332
641.596,71.40786,-3.13892,-0.14759,0.71284
642.196,71.46833,-3.1378,-0.14629,0.71236
642.796,71.52877,-3.13891,-0.14737,0.71188
643.396,71.58921,-3.13889,-0.14697,0.7114
643.996,71.64934,-3.1399,-0.14752,0.71093
644.596,71.70974,-3.1399,-0.14744,0.71045
645.196,71.77016,-3.13922,-0.14427,0.70997
645.796,71.83084,-3.13965,-0.14182,0.7095
646.396,71.89161,-3.14023,-0.14438,0.70902
646.996,71.9522,-3.14023,-0.14513,0.70855
647.596,72.01286,-3.14122,-0.14544,0.70807
648.196,72.07366,-3.14122,-0.14455,0.7076
648.796,72.13409,-3.14254,-0.14405,0.70712
649.396,72.19461,-3.14254,-0.1447,0.70665
649.996,72.25511,-3.1432,-0.14368,0.70617
650.596,72.31589,-3.14288,-0.14403,0.7057
651.196,72.37657,-3.14287,-0.14201,0.70522
651.796,72.43713,-3.14287,-0.14072,0.70475
652.396,72.49763,-3.14287,-0.13872,0.70428
652.996,72.55812,-3.14418,-0.13874,0.70381
653.596,72.6187,-3.14417,-0.13832,0.70333
654.196,72.67927,-3.14352,-0.13874,0.70286
654.796,72.73978,-3.14352,-0.14003,0.70239
655.396,72.80027,-3.14319,-0.13825,0.70192
655.996,72.86078,-3.14319,-0.13764,0.70145
656.596,72.92135,-3.14385,-0.13839,0.70098
657.196,72.98181,-3.1449,-0.13747,0.70051
657.796,73.0423,-3.14484,-0.13871,0.70004
658.396,73.10278,-3.14616,-0.13785,0.69957
658.996,73.16322,-3.14484,-0.13886,0.6991
659.596,73.2236,-3.14484,-0.1363,0.69863
660.196,73.2841,-3.14484,-0.13526,0.69816
660.796,73.34475,-3.14484,-0.1346,0.69769
661.396,73.40536,-3.14484,-0.13405,0.69722
661.996,73.46601,-3.14485,-0.13232,0.69675
662.596,73.5266,-3.14385,-0.13293,0.69629
663.196,73.58725,-3.14418,-0.13632,0.69582
663.796,73.64798,-3.1455,-0.13612,0.69535
664.396,73.7087,-3.1455,-0.13354,0.69489
664.996,73.7693,-3.14518,-0.13451,0.69442
665.596,73.82994,-3.14648,-0.1345,0.69395
666.196,73.89066,-3.14648,-0.13372,0.69349
666.796,73.95158,-3.14654,-0.13041,0.69302
667.396,74.01248,-3.1478,-0.1304,0.69256
667.996,74.07328,-3.1478,-0.12918,0.69209
668.596,74.13407,-3.14769,-0.13016,0.69163
669.196,74.19493,-3.14847,-0.13139,0.69116
669.796,74.25562,-3.14847,-0.13014,0.6907
670.396,74.31653,-3.14847,-0.12929,0.69024
670.996,74.37748,-3.14847,-0.13406,0.68977
671.596,74.43841,-3.14847,-0.13157,0.68931
672.196,74.49926,-3.14847,-0.13409,0.68885
672.796,74.56006,-3.14781,-0.13501,0.68839
673.396,74.62089,-3.14915,-0.13374,0.68793
673.996,74.68153,-3.14913,-0.13476,0.68746
674.596,74.74217,-3.14913,-0.13435,0.687
675.196,74.80282,-3.15044,-0.13385,0.68654
675.796,74.86331,-3.15044,-0.13323,0.68608
676.396,74.92419,-3.15044,-0.13571,0.68562
676.996,74.98492,-3.15044,-0.13481,0.68516
677.596,75.04548,-3.14912,-0.1324,0.6847
678.196,75.10623,-3.14978,-0.13387,0.68424
678.796,75.1667,-3.14978,-0.13427,0.68379
679.396,75.22718,-3.15044,-0.13519,0.68333
679.996,75.28767,-3.15044,-0.1336,0.68287
680.596,75.34823,-3.15176,-0.13696,0.68241
681.196,75.40886,-3.15176,-0.13454,0.68195
681.796,75.46953,-3.15248,-0.13632,0.6815
682.396,75.53019,-3.15209,-0.13878,0.68104
682.996,75.59083,-3.15209,-0.13746,0.68058
683.596,75.65148,-3.15077,-0.13686,0.68013
684.196,75.71227,-3.15311,-0.13732,0.67967
684.796,75.77308,-3.15308,-0.13613,0.67922
685.396,75.83373,-3.15439,-0.13656,0.67876
685.996,75.89438,-3.15307,-0.13816,0.67831
686.596,75.95508,-3.15307,-0.13769,0.67785
687.196,76.01577,-3.15307,-0.1384,0.6774
687.796,76.0765,-3.15439,-0.13997,0.67695
688.396,76.1373,-3.15437,-0.13994,0.67649
688.996,76.19786,-3.15571,-0.13895,0.67604
689.596,76.25808,-3.15571,-0.13985,0.67559
690.196,76.31882,-3.15571,-0.13921,0.67514
690.796,76.37941,-3.15571,-0.13999,0.67468
691.396,76.44061,-3.15571,-0.14367,0.67423
691.996,76.50156,-3.15626,-0.14154,0.67378
692.596,76.56254,-3.15568,-0.14253,0.67333
693.196,76.62349,-3.15703,-0.14303,0.67288
693.796,76.68436,-3.15571,-0.14243,0.67243
694.396,76.74521,-3.15702,-0.14063,0.67198
694.996,76.80612,-3.15702,-0.14068,0.67153
695.596,76.86711,-3.15801,-0.14124,0.67108
696.196,76.92801,-3.15801,-0.14274,0.67063
696.796,76.98887,-3.15801,-0.14559,0.67018
697.396,77.04941,-3.1571,-0.14369,0.66974
697.996,77.10963,-3.1567,-0.1443,0.66929
698.596,77.17012,-3.15802,-0.14359,0.66884
699.196,77.23085,-3.15802,-0.14594,0.6684
699.796,77.29165,-3.15934,-0.14805,0.66795
700.396,77.35263,-3.16065,-0.14796,0.6675
700.996,77.41331,-3.16197,-0.15212,0.66706
701.596,77.47409,-3.16197,-0.15325,0.66661
701.796,77.49427,-3.16197,-0.154,0.66646