File: 01_Data/Composite_Deck_Board/FTIR/IS/Composite_Deck_Board_IS_T_220928_R8.dpt
7497.03,0.02544
7491.25,0.02650
7485.46,0.03488
7479.67,0.02551
7473.89,0.03518
7468.1,0.02209
7462.32,0.02018
7456.53,0.02764
7450.74,0.03261
7444.96,0.03057
7439.17,0.01992
7433.38,0.02391
7427.6,0.02209
7421.81,0.02918
7416.03,0.02678
7410.24,0.02520
7404.45,0.02748
7398.67,0.01596
7392.88,0.02194
7387.09,0.02281
7381.31,0.01491
7375.52,0.02535
7369.74,0.02485
7363.95,0.02466
7358.16,0.01898
7352.38,0.03474
7346.59,0.02764
7340.8,0.01989
7335.02,0.03028
7329.23,0.02364
7323.45,0.02252
7317.66,0.02817
7311.87,0.03121
7306.09,0.02800
7300.3,0.02647
7294.51,0.01561
7288.73,0.01693
7282.94,0.01987
7277.16,0.02425
7271.37,0.02501
7265.58,0.02446
7259.8,0.02288
7254.01,0.02702
7248.22,0.02733
7242.44,0.02923
7236.65,0.02374
7230.87,0.02260
7225.08,0.02138
7219.29,0.02422
7213.51,0.02881
7207.72,0.02149
7201.93,0.02487
7196.15,0.02143
7190.36,0.02252
7184.58,0.02824
7178.79,0.02088
7173,0.03167
7167.22,0.01947
7161.43,0.02381
7155.65,0.02385
7149.86,0.02409
7144.07,0.02228
7138.29,0.02209
7132.5,0.02092
7126.71,0.02963
7120.93,0.02367
7115.14,0.02484
7109.36,0.02337
7103.57,0.02853
7097.78,0.02484
7092,0.02161
7086.21,0.02313
7080.42,0.02379
7074.64,0.02790
7068.85,0.03130
7063.07,0.02372
7057.28,0.02772
7051.49,0.02556
7045.71,0.02239
7039.92,0.02173
7034.13,0.02235
7028.35,0.02262
7022.56,0.02696
7016.78,0.02715
7010.99,0.02974
7005.2,0.02352
6999.42,0.02377
6993.63,0.02458
6987.84,0.02701
6982.06,0.02392
6976.27,0.02540
6970.49,0.02915
6964.7,0.02692
6958.91,0.02663
6953.13,0.02299
6947.34,0.02303
6941.55,0.02118
6935.77,0.02441
6929.98,0.02998
6924.2,0.02885
6918.41,0.02719
6912.62,0.02653
6906.84,0.02622
6901.05,0.02887
6895.26,0.02227
6889.48,0.02276
6883.69,0.02044
6877.91,0.02347
6872.12,0.01948
6866.33,0.02655
6860.55,0.02946
6854.76,0.02783
6848.97,0.02214
6843.19,0.02331
6837.4,0.02371
6831.62,0.02918
6825.83,0.02713
6820.04,0.01759
6814.26,0.02239
6808.47,0.02559
6802.68,0.02759
6796.9,0.02336
6791.11,0.02614
6785.33,0.02808
6779.54,0.02055
6773.75,0.02557
6767.97,0.02289
6762.18,0.02621
6756.39,0.02693
6750.61,0.02619
6744.82,0.02678
6739.04,0.01926
6733.25,0.02350
6727.46,0.02380
6721.68,0.02700
6715.89,0.02257
6710.1,0.02004
6704.32,0.02706
6698.53,0.02331
6692.75,0.02551
6686.96,0.02139
6681.17,0.02211
6675.39,0.02434
6669.6,0.02442
6663.82,0.02465
6658.03,0.02508
6652.24,0.01751
6646.46,0.02192
6640.67,0.02111
6634.88,0.02636
6629.1,0.02561
6623.31,0.02058
6617.53,0.02239
6611.74,0.02254
6605.95,0.02164
6600.17,0.01954
6594.38,0.02465
6588.59,0.02318
6582.81,0.02447
6577.02,0.02391
6571.24,0.02320
6565.45,0.02275
6559.66,0.02008
6553.88,0.02155
6548.09,0.02060
6542.3,0.02281
6536.52,0.02712
6530.73,0.02200
6524.95,0.02243
6519.16,0.02013
6513.37,0.02569
6507.59,0.02138
6501.8,0.01840
6496.01,0.02315
6490.23,0.02134
6484.44,0.02536
6478.66,0.02406
6472.87,0.01897
6467.08,0.02235
6461.3,0.01852
6455.51,0.01971
6449.72,0.02266
6443.94,0.02146
6438.15,0.01914
6432.37,0.02281
6426.58,0.02214
6420.79,0.02247
6415.01,0.02054
6409.22,0.02303
6403.43,0.02250
6397.65,0.02248
6391.86,0.02474
6386.08,0.02333
6380.29,0.02750
6374.5,0.02144
6368.72,0.01934
6362.93,0.02147
6357.14,0.02025
6351.36,0.02499
6345.57,0.02350
6339.79,0.02044
6334,0.01907
6328.21,0.02304
6322.43,0.02171
6316.64,0.02191
6310.85,0.02101
6305.07,0.02490
6299.28,0.02299
6293.5,0.02054
6287.71,0.02291
6281.92,0.02078
6276.14,0.02167
6270.35,0.02229
6264.56,0.02303
6258.78,0.01825
6252.99,0.01914
6247.21,0.02262
6241.42,0.02477
6235.63,0.02090
6229.85,0.01872
6224.06,0.02171
6218.27,0.01991
6212.49,0.02179
6206.7,0.02088
6200.92,0.02081
6195.13,0.02274
6189.34,0.01971
6183.56,0.02037
6177.77,0.02560
6171.98,0.02359
6166.2,0.02176
6160.41,0.02016
6154.63,0.01939
6148.84,0.02601
6143.05,0.02156
6137.27,0.01975
6131.48,0.02305
6125.7,0.01888
6119.91,0.02080
6114.12,0.01828
6108.34,0.02114
6102.55,0.02043
6096.76,0.02106
6090.98,0.02248
6085.19,0.02057
6079.41,0.02388
6073.62,0.02072
6067.83,0.02088
6062.05,0.01946
6056.26,0.02303
6050.47,0.02353
6044.69,0.01893
6038.9,0.02083
6033.12,0.02238
6027.33,0.02421
6021.54,0.02181
6015.76,0.02035
6009.97,0.01991
6004.18,0.02268
5998.4,0.02465
5992.61,0.02198
5986.83,0.02185
5981.04,0.02234
5975.25,0.02229
5969.47,0.01905
5963.68,0.01960
5957.89,0.02104
5952.11,0.02355
5946.32,0.02157
5940.54,0.01917
5934.75,0.02153
5928.96,0.02301
5923.18,0.02294
5917.39,0.02253
5911.6,0.02156
5905.82,0.02036
5900.03,0.02138
5894.25,0.02097
5888.46,0.02089
5882.67,0.02110
5876.89,0.02319
5871.1,0.02232
5865.31,0.02110
5859.53,0.02144
5853.74,0.02338
5847.96,0.02084
5842.17,0.02283
5836.38,0.02071
5830.6,0.02358
5824.81,0.02017
5819.02,0.01995
5813.24,0.02044
5807.45,0.02043
5801.67,0.01850
5795.88,0.02178
5790.09,0.02198
5784.31,0.02094
5778.52,0.02074
5772.73,0.02172
5766.95,0.02152
5761.16,0.02213
5755.38,0.02283
5749.59,0.02167
5743.8,0.02284
5738.02,0.02274
5732.23,0.02178
5726.44,0.02233
5720.66,0.02284
5714.87,0.02341
5709.09,0.02317
5703.3,0.02504
5697.51,0.02204
5691.73,0.02023
5685.94,0.02229
5680.15,0.02349
5674.37,0.02055
5668.58,0.02132
5662.8,0.02342
5657.01,0.02433
5651.22,0.02173
5645.44,0.02005
5639.65,0.02117
5633.87,0.02134
5628.08,0.02157
5622.29,0.02194
5616.51,0.02126
5610.72,0.02308
5604.93,0.02194
5599.15,0.02371
5593.36,0.02479
5587.58,0.02336
5581.79,0.02061
5576,0.02079
5570.22,0.02150
5564.43,0.02042
5558.64,0.02181
5552.86,0.01898
5547.07,0.02156
5541.29,0.02243
5535.5,0.02367
5529.71,0.02286
5523.93,0.02154
5518.14,0.02156
5512.35,0.02211
5506.57,0.02244
5500.78,0.02273
5495,0.02240
5489.21,0.02179
5483.42,0.02256
5477.64,0.02199
5471.85,0.02296
5466.06,0.02229
5460.28,0.02078
5454.49,0.02276
5448.71,0.02151
5442.92,0.02144
5437.13,0.02225
5431.35,0.02106
5425.56,0.02070
5419.77,0.02061
5413.99,0.02162
5408.2,0.02309
5402.42,0.02212
5396.63,0.02053
5390.84,0.02218
5385.06,0.02292
5379.27,0.02336
5373.48,0.02172
5367.7,0.02166
5361.91,0.02166
5356.13,0.02256
5350.34,0.02304
5344.55,0.02258
5338.77,0.02164
5332.98,0.02278
5327.19,0.02194
5321.41,0.02210
5315.62,0.02205
5309.84,0.02125
5304.05,0.02170
5298.26,0.02218
5292.48,0.02224
5286.69,0.02253
5280.9,0.02381
5275.12,0.02208
5269.33,0.02192
5263.55,0.02348
5257.76,0.02141
5251.97,0.02281
5246.19,0.02181
5240.4,0.02339
5234.61,0.02373
5228.83,0.02269
5223.04,0.02276
5217.26,0.02116
5211.47,0.02171
5205.68,0.02157
5199.9,0.02451
5194.11,0.02245
5188.32,0.02155
5182.54,0.02049
5176.75,0.02125
5170.97,0.02283
5165.18,0.02259
5159.39,0.02128
5153.61,0.02325
5147.82,0.02221
5142.03,0.02271
5136.25,0.02394
5130.46,0.02245
5124.68,0.02246
5118.89,0.02247
5113.1,0.02142
5107.32,0.02182
5101.53,0.02246
5095.75,0.02259
5089.96,0.02263
5084.17,0.02205
5078.39,0.02219
5072.6,0.02334
5066.81,0.02377
5061.03,0.02228
5055.24,0.02256
5049.46,0.02298
5043.67,0.02266
5037.88,0.02269
5032.1,0.02248
5026.31,0.02281
5020.52,0.02278
5014.74,0.02270
5008.95,0.02229
5003.17,0.02183
4997.38,0.02323
4991.59,0.02206
4985.81,0.02167
4980.02,0.02258
4974.23,0.02175
4968.45,0.02199
4962.66,0.02260
4956.88,0.02262
4951.09,0.02194
4945.3,0.02219
4939.52,0.02177
4933.73,0.02158
4927.94,0.02193
4922.16,0.02161
4916.37,0.02173
4910.59,0.02228
4904.8,0.02170
4899.01,0.02152
4893.23,0.02222
4887.44,0.02130
4881.65,0.02159
4875.87,0.02263
4870.08,0.02268
4864.3,0.02133
4858.51,0.02185
4852.72,0.02301
4846.94,0.02160
4841.15,0.02207
4835.36,0.02172
4829.58,0.02182
4823.79,0.02307
4818.01,0.02274
4812.22,0.02198
4806.43,0.02233
4800.65,0.02286
4794.86,0.02202
4789.07,0.02257
4783.29,0.02301
4777.5,0.02253
4771.72,0.02285
4765.93,0.02243
4760.14,0.02230
4754.36,0.02190
4748.57,0.02210
4742.78,0.02308
4737,0.02288
4731.21,0.02275
4725.43,0.02184
4719.64,0.02196
4713.85,0.02210
4708.07,0.02297
4702.28,0.02305
4696.49,0.02260
4690.71,0.02159
4684.92,0.02283
4679.14,0.02169
4673.35,0.02245
4667.56,0.02244
4661.78,0.02267
4655.99,0.02218
4650.2,0.02133
4644.42,0.02225
4638.63,0.02310
4632.85,0.02227
4627.06,0.02274
4621.27,0.02221
4615.49,0.02298
4609.7,0.02196
4603.92,0.02231
4598.13,0.02153
4592.34,0.02261
4586.56,0.02116
4580.77,0.02272
4574.98,0.02167
4569.2,0.02246
4563.41,0.02185
4557.63,0.02215
4551.84,0.02185
4546.05,0.02262
4540.27,0.02251
4534.48,0.02234
4528.69,0.02264
4522.91,0.02243
4517.12,0.02230
4511.34,0.02266
4505.55,0.02199
4499.76,0.02227
4493.98,0.02277
4488.19,0.02274
4482.4,0.02195
4476.62,0.02306
4470.83,0.02302
4465.05,0.02275
4459.26,0.02290
4453.47,0.02300
4447.69,0.02265
4441.9,0.02247
4436.11,0.02316
4430.33,0.02217
4424.54,0.02119
4418.76,0.02229
4412.97,0.02295
4407.18,0.02252
4401.4,0.02221
4395.61,0.02234
4389.82,0.02236
4384.04,0.02218
4378.25,0.02231
4372.47,0.02209
4366.68,0.02232
4360.89,0.02252
4355.11,0.02150
4349.32,0.02221
4343.53,0.02199
4337.75,0.02313
4331.96,0.02270
4326.18,0.02243
4320.39,0.02168
4314.6,0.02225
4308.82,0.02238
4303.03,0.02273
4297.24,0.02248
4291.46,0.02300
4285.67,0.02251
4279.89,0.02277
4274.1,0.02277
4268.31,0.02224
4262.53,0.02291
4256.74,0.02286
4250.95,0.02198
4245.17,0.02221
4239.38,0.02172
4233.6,0.02233
4227.81,0.02275
4222.02,0.02217
4216.24,0.02183
4210.45,0.02281
4204.66,0.02249
4198.88,0.02268
4193.09,0.02264
4187.31,0.02271
4181.52,0.02262
4175.73,0.02232
4169.95,0.02257
4164.16,0.02294
4158.37,0.02273
4152.59,0.02239
4146.8,0.02197
4141.02,0.02214
4135.23,0.02244
4129.44,0.02230
4123.66,0.02269
4117.87,0.02261
4112.09,0.02289
4106.3,0.02248
4100.51,0.02228
4094.73,0.02246
4088.94,0.02294
4083.15,0.02296
4077.37,0.02236
4071.58,0.02241
4065.8,0.02233
4060.01,0.02273
4054.22,0.02228
4048.44,0.02277
4042.65,0.02232
4036.86,0.02221
4031.08,0.02263
4025.29,0.02168
4019.51,0.02207
4013.72,0.02273
4007.93,0.02222
4002.15,0.02235
3996.36,0.02287
3990.57,0.02261
3984.79,0.02283
3979,0.02279
3973.22,0.02179
3967.43,0.02253
3961.64,0.02271
3955.86,0.02211
3950.07,0.02284
3944.28,0.02228
3938.5,0.02264
3932.71,0.02247
3926.93,0.02199
3921.14,0.02321
3915.35,0.02312
3909.57,0.02280
3903.78,0.02225
3897.99,0.02237
3892.21,0.02218
3886.42,0.02270
3880.64,0.02287
3874.85,0.02237
3869.06,0.02274
3863.28,0.02237
3857.49,0.02359
3851.7,0.02273
3845.92,0.02235
3840.13,0.02340
3834.35,0.02311
3828.56,0.02305
3822.77,0.02339
3816.99,0.02277
3811.2,0.02232
3805.41,0.02329
3799.63,0.02315
3793.84,0.02247
3788.06,0.02284
3782.27,0.02251
3776.48,0.02301
3770.7,0.02304
3764.91,0.02232
3759.12,0.02270
3753.34,0.02281
3747.55,0.02187
3741.77,0.02239
3735.98,0.02325
3730.19,0.02275
3724.41,0.02202
3718.62,0.02282
3712.83,0.02280
3707.05,0.02228
3701.26,0.02263
3695.48,0.02273
3689.69,0.02256
3683.9,0.02223
3678.12,0.02273
3672.33,0.02236
3666.54,0.02249
3660.76,0.02244
3654.97,0.02259
3649.19,0.02242
3643.4,0.02220
3637.61,0.02150
3631.83,0.02180
3626.04,0.02144
3620.25,0.02095
3614.47,0.02170
3608.68,0.02242
3602.9,0.02230
3597.11,0.02213
3591.32,0.02155
3585.54,0.02152
3579.75,0.02184
3573.97,0.02128
3568.18,0.02146
3562.39,0.02151
3556.61,0.02209
3550.82,0.02165
3545.03,0.02114
3539.25,0.02121
3533.46,0.02124
3527.68,0.02129
3521.89,0.02106
3516.1,0.02095
3510.32,0.02138
3504.53,0.02058
3498.74,0.02075
3492.96,0.02141
3487.17,0.02051
3481.39,0.02138
3475.6,0.02105
3469.81,0.02047
3464.03,0.02088
3458.24,0.02080
3452.45,0.02050
3446.67,0.02107
3440.88,0.02093
3435.1,0.02078
3429.31,0.02099
3423.52,0.02117
3417.74,0.02093
3411.95,0.02112
3406.16,0.02040
3400.38,0.02090
3394.59,0.02113
3388.81,0.02071
3383.02,0.02130
3377.23,0.02080
3371.45,0.02078
3365.66,0.02110
3359.87,0.02027
3354.09,0.02029
3348.3,0.02060
3342.52,0.02015
3336.73,0.01945
3330.94,0.02014
3325.16,0.02017
3319.37,0.02050
3313.58,0.01995
3307.8,0.02074
3302.01,0.02010
3296.23,0.02012
3290.44,0.02072
3284.65,0.02000
3278.87,0.02007
3273.08,0.01968
3267.29,0.02051
3261.51,0.01998
3255.72,0.02012
3249.94,0.02039
3244.15,0.02053
3238.36,0.02104
3232.58,0.02014
3226.79,0.02082
3221,0.02090
3215.22,0.02063
3209.43,0.02052
3203.65,0.02119
3197.86,0.02014
3192.07,0.02010
3186.29,0.02034
3180.5,0.02084
3174.71,0.02178
3168.93,0.02071
3163.14,0.02086
3157.36,0.02175
3151.57,0.02102
3145.78,0.02059
3140,0.02038
3134.21,0.02011
3128.42,0.02059
3122.64,0.02071
3116.85,0.02109
3111.07,0.02128
3105.28,0.02058
3099.49,0.02100
3093.71,0.02098
3087.92,0.02110
3082.14,0.02086
3076.35,0.02061
3070.56,0.02086
3064.78,0.02048
3058.99,0.02045
3053.2,0.02022
3047.42,0.02038
3041.63,0.02079
3035.85,0.02078
3030.06,0.02025
3024.27,0.02114
3018.49,0.02114
3012.7,0.02056
3006.91,0.02032
3001.13,0.02047
2995.34,0.02095
2989.56,0.02029
2983.77,0.01955
2977.98,0.01990
2972.2,0.01960
2966.41,0.01957
2960.62,0.01956
2954.84,0.01985
2949.05,0.01977
2943.27,0.01951
2937.48,0.01975
2931.69,0.01935
2925.91,0.01948
2920.12,0.02051
2914.33,0.02074
2908.55,0.02075
2902.76,0.02028
2896.98,0.02040
2891.19,0.01998
2885.4,0.02026
2879.62,0.02023
2873.83,0.02035
2868.04,0.02031
2862.26,0.02042
2856.47,0.02034
2850.69,0.02086
2844.9,0.02082
2839.11,0.02094
2833.33,0.02113
2827.54,0.02082
2821.75,0.02121
2815.97,0.02101
2810.18,0.02129
2804.4,0.02146
2798.61,0.02127
2792.82,0.02090
2787.04,0.02079
2781.25,0.02122
2775.46,0.02127
2769.68,0.02155
2763.89,0.02132
2758.11,0.02177
2752.32,0.02105
2746.53,0.02147
2740.75,0.02166
2734.96,0.02148
2729.17,0.02094
2723.39,0.02132
2717.6,0.02152
2711.82,0.02156
2706.03,0.02121
2700.24,0.02151
2694.46,0.02128
2688.67,0.02113
2682.88,0.02108
2677.1,0.02120
2671.31,0.02105
2665.53,0.02142
2659.74,0.02132
2653.95,0.02110
2648.17,0.02087
2642.38,0.02127
2636.59,0.02142
2630.81,0.02155
2625.02,0.02133
2619.24,0.02149
2613.45,0.02116
2607.66,0.02120
2601.88,0.02116
2596.09,0.02116
2590.3,0.02145
2584.52,0.02151
2578.73,0.02116
2572.95,0.02144
2567.16,0.02133
2561.37,0.02126
2555.59,0.02139
2549.8,0.02129
2544.02,0.02141
2538.23,0.02123
2532.44,0.02124
2526.66,0.02149
2520.87,0.02111
2515.08,0.02109
2509.3,0.02121
2503.51,0.02114
2497.73,0.02155
2491.94,0.02135
2486.15,0.02114
2480.37,0.02118
2474.58,0.02113
2468.79,0.02145
2463.01,0.02162
2457.22,0.02100
2451.44,0.02141
2445.65,0.02160
2439.86,0.02105
2434.08,0.02125
2428.29,0.02109
2422.5,0.02159
2416.72,0.02153
2410.93,0.02112
2405.15,0.02139
2399.36,0.02151
2393.57,0.02115
2387.79,0.02135
2382,0.02139
2376.21,0.02144
2370.43,0.02111
2364.64,0.02099
2358.86,0.02148
2353.07,0.02122
2347.28,0.02119
2341.5,0.02128
2335.71,0.02141
2329.92,0.02148
2324.14,0.02152
2318.35,0.02107
2312.57,0.02113
2306.78,0.02096
2300.99,0.02133
2295.21,0.02079
2289.42,0.02103
2283.63,0.02110
2277.85,0.02106
2272.06,0.02091
2266.28,0.02121
2260.49,0.02139
2254.7,0.02108
2248.92,0.02148
2243.13,0.02105
2237.34,0.02062
2231.56,0.02081
2225.77,0.02086
2219.99,0.02091
2214.2,0.02106
2208.41,0.02077
2202.63,0.02111
2196.84,0.02119
2191.05,0.02103
2185.27,0.02098
2179.48,0.02112
2173.7,0.02082
2167.91,0.02103
2162.12,0.02087
2156.34,0.02120
2150.55,0.02106
2144.76,0.02075
2138.98,0.02076
2133.19,0.02081
2127.41,0.02121
2121.62,0.02119
2115.83,0.02086
2110.05,0.02075
2104.26,0.02061
2098.47,0.02080
2092.69,0.02099
2086.9,0.02104
2081.12,0.02077
2075.33,0.02091
2069.54,0.02084
2063.76,0.02087
2057.97,0.02062
2052.19,0.02112
2046.4,0.02121
2040.61,0.02080
2034.83,0.02091
2029.04,0.02110
2023.25,0.02062
2017.47,0.02051
2011.68,0.02085
2005.9,0.02085
2000.11,0.02098
1994.32,0.02105
1988.54,0.02097
1982.75,0.02085
1976.96,0.02091
1971.18,0.02109
1965.39,0.02090
1959.61,0.02075
1953.82,0.02070
1948.03,0.02086
1942.25,0.02086
1936.46,0.02081
1930.67,0.02082
1924.89,0.02071
1919.1,0.02071
1913.32,0.02046
1907.53,0.02067
1901.74,0.02091
1895.96,0.02053
1890.17,0.02089
1884.38,0.02050
1878.6,0.02011
1872.81,0.02085
1867.03,0.02044
1861.24,0.02054
1855.45,0.02051
1849.67,0.02026
1843.88,0.02035
1838.09,0.02040
1832.31,0.02042
1826.52,0.02011
1820.74,0.02016
1814.95,0.01998
1809.16,0.01985
1803.38,0.02006
1797.59,0.01950
1791.8,0.01975
1786.02,0.01918
1780.23,0.01937
1774.45,0.01936
1768.66,0.01874
1762.87,0.01821
1757.09,0.01747
1751.3,0.01733
1745.51,0.01757
1739.73,0.01823
1733.94,0.01956
1728.16,0.02005
1722.37,0.02070
1716.58,0.02047
1710.8,0.02047
1705.01,0.02006
1699.22,0.01959
1693.44,0.01943
1687.65,0.01936
1681.87,0.01924
1676.08,0.01905
1670.29,0.01898
1664.51,0.01862
1658.72,0.01880
1652.93,0.01845
1647.15,0.01847
1641.36,0.01832
1635.58,0.01912
1629.79,0.01882
1624,0.01888
1618.22,0.01914
1612.43,0.01880
1606.64,0.01872
1600.86,0.01880
1595.07,0.01909
1589.29,0.01876
1583.5,0.01845
1577.71,0.01864
1571.93,0.01850
1566.14,0.01849
1560.35,0.01852
1554.57,0.01822
1548.78,0.01803
1543,0.01842
1537.21,0.01814
1531.42,0.01886
1525.64,0.01857
1519.85,0.01844
1514.07,0.01855
1508.28,0.01863
1502.49,0.01854
1496.71,0.01872
1490.92,0.01891
1485.13,0.01880
1479.35,0.01863
1473.56,0.01840
1467.78,0.01863
1461.99,0.01826
1456.2,0.01877
1450.42,0.01862
1444.63,0.01913
1438.84,0.01882
1433.06,0.01893
1427.27,0.01893
1421.49,0.01877
1415.7,0.01844
1409.91,0.01850
1404.13,0.01847
1398.34,0.01812
1392.55,0.01793
1386.77,0.01818
1380.98,0.01818
1375.2,0.01809
1369.41,0.01840
1363.62,0.01834
1357.84,0.01852
1352.05,0.01824
1346.26,0.01795
1340.48,0.01791
1334.69,0.01788
1328.91,0.01763
1323.12,0.01714
1317.33,0.01740
1311.55,0.01689
1305.76,0.01691
1299.97,0.01794
1294.19,0.01782
1288.4,0.01805
1282.62,0.01907
1276.83,0.01901
1271.04,0.01920
1265.26,0.01968
1259.47,0.01966
1253.68,0.01968
1247.9,0.02049
1242.11,0.02012
1236.33,0.01977
1230.54,0.01937
1224.75,0.01932
1218.97,0.01916
1213.18,0.01864
1207.39,0.01890
1201.61,0.01884
1195.82,0.01881
1190.04,0.01819
1184.25,0.01803
1178.46,0.01776
1172.68,0.01748
1166.89,0.01804
1161.1,0.01770
1155.32,0.01774
1149.53,0.01746
1143.75,0.01770
1137.96,0.01781
1132.17,0.01799
1126.39,0.01848
1120.6,0.01920
1114.81,0.01872
1109.03,0.01852
1103.24,0.01833
1097.46,0.01836
1091.67,0.01866
1085.88,0.01752
1080.1,0.01840
1074.31,0.01944
1068.52,0.02028
1062.74,0.01982
1056.95,0.02000
1051.17,0.01923
1045.38,0.01944
1039.59,0.01879
1033.81,0.01928
1028.02,0.01969
1022.24,0.01936
1016.45,0.01929
1010.66,0.01991
1004.88,0.02033
999.09,0.02085
993.304,0.02077
987.518,0.02093
981.731,0.02064
975.945,0.02058
970.159,0.01988
964.373,0.02014
958.586,0.01981
952.8,0.01958
947.014,0.02011
941.228,0.01971
935.441,0.01997
929.655,0.01931
923.869,0.01991
918.083,0.01910
912.297,0.01982
906.51,0.01944
900.724,0.01896
894.938,0.01873
889.152,0.01966
883.365,0.01920
877.579,0.01959
871.793,0.01925
866.007,0.01902
860.22,0.01872
854.434,0.01914
848.648,0.01816
842.862,0.01893
837.075,0.01867
831.289,0.01983
825.503,0.01893
819.717,0.01870
813.931,0.01909
808.144,0.01888
802.358,0.01835
796.572,0.01877
790.786,0.01825
784.999,0.01823
779.213,0.01783
773.427,0.01801
767.641,0.01821
761.854,0.01851
756.068,0.01769
750.282,0.01741
744.496,0.01835
738.709,0.01863
732.923,0.01943
727.137,0.01822
721.351,0.01825
715.565,0.01806
709.778,0.01864
703.992,0.01792
698.206,0.01769
692.42,0.01751
686.633,0.01737
680.847,0.01791
675.061,0.01706
669.275,0.01630
663.488,0.01474
657.702,0.01606
651.916,0.01743
646.13,0.01649
640.343,0.01794
634.557,0.01504
628.771,0.01713
622.985,0.01493
617.198,0.01416
611.412,0.01571
605.626,0.01504
599.84,0.01601