File: 01_Data/UEBSS/STA/N2/10K_min/UEBSS_STA_N2_10KData_240405_R1.csv
Temp./C,Time/min,DSC/(mW/mg),Mass loss/mg
60.0,0.0,0.955997,-0.00252112
60.5,0.0549895,0.977213,-0.00257036
61,0.111942,0.98596,-0.00295421
61.5,0.167761,1.00127,-0.00334334
62,0.222573,1.01656,-0.0030366
62.5,0.27484,1.02031,-0.00424396
63,0.333047,1.03364,-0.0036435
63.5,0.387577,1.04104,-0.00250725
64,0.442909,1.04606,-0.00121
64.5,0.496246,1.06191,0.000155203
65,0.549997,1.06861,0.000597566
65.5,0.604454,1.07804,0.000116173
66,0.659306,1.08129,-0.00295025
66.5,0.712226,1.09203,-0.0066602
67,0.764022,1.09157,-0.0081679
67.5,0.818985,1.10155,-0.0095144
68,0.871544,1.09374,-0.00765812
68.5,0.92152,1.10119,-0.00697738
69,0.977339,1.11588,-0.00265319
69.5,1.02918,1.11227,-0.00135378
70,1.08414,1.12397,-0.000841564
70.5,1.13427,1.12667,-0.00167641
71,1.18763,1.13823,-0.000769194
71.5,1.2399,1.14112,-0.000770002
72,1.29246,1.13726,-0.00077
72.5,1.34504,1.14782,-0.000769984
73,1.39641,1.14155,-0.000787372
73.5,1.44972,1.144,-0.000741858
74,1.5013,1.14919,-0.00143574
74.5,1.55168,1.14923,-0.00230179
75,1.60271,1.15809,-0.003527
75.5,1.65677,1.1622,-0.0035038
76,1.70815,1.16538,-0.00355487
76.5,1.75937,1.16841,-0.000890077
77,1.812,1.16373,-0.000890387
77.5,1.86246,1.17567,-0.0020825
78,1.9148,1.17378,-0.000868042
78.5,1.96576,1.18165,-0.000514422
79,2.01739,1.19101,-5.67843e-05
79.5,2.0679,1.17959,-0.000877638
80,2.11881,1.17453,-0.00220075
80.5,2.16789,1.1886,-0.00328975
81,2.21965,1.18736,-0.00219076
81.5,2.27278,1.19452,-0.0011165
82,2.32397,1.19558,-0.000879885
82.5,2.37529,1.19822,-0.00088
83,2.42568,1.19938,-0.00088
83.5,2.47623,1.21149,-0.000879999
84,2.52631,1.20234,-0.000880847
84.5,2.57725,1.20744,0.000490548
85,2.6268,1.21209,0.00121869
85.5,2.67788,1.22212,0.00176016
86,2.72931,1.22945,0.000619148
86.5,2.77866,1.22821,0.000439989
87,2.82832,1.2378,0.00044
87.5,2.87843,1.24007,0.000440012
88,2.92946,1.23503,0.00043114
88.5,2.97814,1.2458,-0.000874182
89,3.02929,1.24097,-0.00238249
89.5,3.07896,1.24215,-0.00256897
90,3.13045,1.25334,-0.00220282
90.5,3.17876,1.25303,-0.000877216
91,3.2297,1.24714,-0.000836606
91.5,3.27917,1.26954,-0.00118972
92,3.32767,1.26455,0.00137452
92.5,3.37779,1.25818,0.00186012
93,3.4277,1.26255,0.00185969
93.5,3.47619,1.27877,0.000363574
94,3.52655,1.27906,-0.000910046
94.5,3.57575,1.2823,0.000334127
95,3.62404,1.28455,-0.000505641
95.5,3.67378,1.28161,0.000217539
96,3.72339,1.29068,-0.00110276
96.5,3.77319,1.29417,0.000359884
97,3.823,1.29512,0.00032995
97.5,3.87167,1.30197,0.000332978
98,3.92068,1.30035,-0.00102433
98.5,3.96902,1.30859,-0.00227894
99,4.01842,1.31089,-0.00237732
99.5,4.06693,1.30758,-0.00168809
100,4.1164,1.31681,-0.00238323
100.5,4.16361,1.31982,-0.0023457
101,4.2108,1.31571,-0.00370689
101.5,4.26161,1.3155,-0.000987025
102,4.31225,1.32845,0.00143485
102.5,4.36102,1.31573,0.00306617
103,4.41045,1.33985,0.00125184
103.5,4.45865,1.32971,0.000429824
104,4.50671,1.33236,0.000429972
104.5,4.55479,1.34743,-0.000681369
105,4.60385,1.33562,-0.000879014
105.5,4.65252,1.34293,-0.00100636
106,4.6995,1.34898,-0.000959078
106.5,4.7508,1.34655,0.000467184
107,4.79916,1.35488,0.00299689
107.5,4.84699,1.35023,0.00488833
108,4.89662,1.35283,0.00548845
108.5,4.94457,1.36157,0.00483192
109,4.99369,1.36156,0.00350146
109.5,5.04122,1.36171,0.00189842
110,5.09034,1.36244,0.000742435
110.5,5.13897,1.37085,-0.000634267
111,5.18735,1.37333,0.00199274
111.5,5.2355,1.36942,0.00351037
112,5.28361,1.38455,0.00352147
112.5,5.33357,1.38047,0.0048247
113,5.38172,1.37867,0.00487083
113.5,5.43039,1.38056,0.00241784
114,5.47832,1.38544,0.0011011
114.5,5.52711,1.38772,0.00109999
115,5.57437,1.38758,0.00109555
115.5,5.62422,1.38626,0.000402419
116,5.6718,1.39426,0.00106902
116.5,5.72095,1.3912,0.00345182
117,5.76997,1.39771,0.00495213
117.5,5.81744,1.39659,0.00348476
118,5.86549,1.39916,0.00351
118.5,5.91375,1.40316,0.0035088
119,5.9629,1.40947,0.00223861
119.5,6.01053,1.39877,0.000620006
120,6.05906,1.41153,-0.001324
120.5,6.10714,1.40402,-0.00109398
121,6.15487,1.40354,-0.00213553
121.5,6.20343,1.41401,0.000104982
122,6.25169,1.41568,0.00185936
122.5,6.30141,1.42244,0.00278828
123,6.34926,1.42275,0.00515261
123.5,6.39718,1.41984,0.00405142
124,6.44581,1.42752,0.00384038
124.5,6.49337,1.42744,0.00237627
125,6.54177,1.43879,0.00109086
125.5,6.5899,1.43561,-0.000335145
126,6.63827,1.43173,-0.00160791
126.5,6.68705,1.4263,-0.00154
127,6.7342,1.43998,-0.00154128
127.5,6.78353,1.44056,-0.00300705
128,6.83052,1.44704,-0.00440042
128.5,6.87824,1.44867,-0.00205639
129,6.92717,1.45537,0.00211789
129.5,6.97568,1.45926,0.00440061
130,7.02332,1.44797,0.00560789
130.5,7.07074,1.44834,0.00572367
131,7.11944,1.45948,0.00629799
131.5,7.16762,1.4633,0.00570002
132,7.21464,1.46732,0.00629724
132.5,7.263,1.46615,0.00572958
133,7.31124,1.46279,0.00433179
133.5,7.35769,1.46928,0.00428485
134,7.4073,1.47042,0.00296063
134.5,7.4554,1.47539,0.00398735
135,7.50366,1.4755,0.00603408
135.5,7.55181,1.47204,0.0055702
136,7.5994,1.48698,0.00313675
136.5,7.64654,1.47745,0.00187063
137,7.6951,1.47601,0.00187078
137.5,7.74277,1.47992,0.00223593
138,7.7913,1.48807,0.00347771
138.5,7.83876,1.49583,0.00483737
139,7.88742,1.49337,0.0061394
139.5,7.93501,1.50464,0.0071188
140,7.98279,1.50841,0.00845149
140.5,8.03035,1.50075,0.00891075
141,8.0781,1.50035,0.00845219
141.5,8.1261,1.50335,0.00566667
142,8.17459,1.51252,0.00213446
142.5,8.22307,1.51912,0.000878118
143,8.26938,1.51842,0.0037869
143.5,8.31746,1.51696,0.00546378
144,8.36532,1.51264,0.00811528
144.5,8.41378,1.51746,0.00670659
145,8.46131,1.52696,0.00527431
145.5,8.5089,1.52171,0.0028866
146,8.55702,1.51417,0.00298561
146.5,8.60445,1.51807,0.00164051
147,8.65165,1.52151,0.00162302
147.5,8.7002,1.52824,0.00036521
148,8.7476,1.52713,0.00258317
148.5,8.79648,1.52541,0.00439327
149,8.84256,1.53631,0.0043883
149.5,8.89127,1.53854,0.00312256
150,8.93911,1.53758,0.00447806
150.5,8.98632,1.53914,0.00652402
151,9.03523,1.54209,0.00712998
151.5,9.0824,1.55347,0.00712968
152,9.13049,1.55871,0.00748086
152.5,9.17751,1.55612,0.00647357
153,9.22603,1.55082,0.0064804
153.5,9.27404,1.56548,0.00521998
154,9.32073,1.56533,0.00516025
154.5,9.36959,1.56799,0.00465128
155,9.41446,1.57178,0.00512212
155.5,9.46493,1.56184,0.00481127
156,9.51301,1.57544,0.0041924
156.5,9.56001,1.57476,0.00483797
157,9.60807,1.57269,0.00482239
157.5,9.6554,1.57103,0.00329009
158,9.70322,1.57806,0.00203176
158.5,9.75163,1.58738,0.00131039
159,9.79919,1.58428,0.00162264
159.5,9.84673,1.57704,0.00262974
160,9.89491,1.58455,0.0026374
160.5,9.94211,1.5898,0.00394772
161,9.99086,1.59317,0.00475596
161.5,10.0388,1.60171,0.00526943
162,10.0864,1.60272,0.00568457
162.5,10.1348,1.60746,0.00656629
163,10.1824,1.61075,0.00827308
163.5,10.2297,1.61859,0.00801672
164,10.2774,1.61583,0.0080107
164.5,10.3258,1.61474,0.00903966
165,10.3734,1.61644,0.00932997
165.5,10.4207,1.61912,0.00934337
166,10.4681,1.62589,0.00798602
166.5,10.5167,1.6283,0.00669062
167,10.565,1.63401,0.00562825
167.5,10.6119,1.62936,0.0021487
168,10.6595,1.63284,0.00127237
168.5,10.7071,1.64027,0.00131043
169,10.7558,1.63336,0.00218138
169.5,10.8035,1.65062,0.00394793
170,10.8508,1.63763,0.00424594
170.5,10.898,1.65204,0.00616552
171,10.9465,1.65058,0.00777031
171.5,10.9941,1.65334,0.00742468
172,11.0414,1.65397,0.0053711
172.5,11.0892,1.66235,0.00537
173,11.1367,1.65565,0.00536992
173.5,11.1845,1.66243,0.00444233
174,11.2334,1.66064,0.00274118
174.5,11.2794,1.67101,0.00277004
175,11.3272,1.6751,0.00537264
175.5,11.3763,1.67595,0.00276829
176,11.4232,1.67401,0.00274007
176.5,11.4704,1.67888,0.00449727
177,11.5188,1.67832,0.00536984
177.5,11.5655,1.67614,0.00536998
178,11.6128,1.68106,0.00494321
178.5,11.6604,1.68589,0.00274289
179,11.7085,1.68878,0.00142995
179.5,11.7559,1.6866,0.00379637
180,11.8027,1.69818,0.00477855
180.5,11.851,1.7001,0.00537052
181,11.896,1.69387,0.00532643
181.5,11.9472,1.69609,0.00196631
182,11.9932,1.69471,0.00143032
182.5,12.0409,1.69159,0.00143
183,12.089,1.70979,0.00143
183.5,12.1357,1.69979,0.00142998
184,12.1827,1.70464,0.00254207
184.5,12.2301,1.70738,0.00271359
185,12.2788,1.70337,0.00306989
185.5,12.326,1.705,0.00307001
186,12.3726,1.71923,0.00304688
186.5,12.4205,1.71801,0.000820039
187,12.4682,1.71584,0.00203232
187.5,12.5149,1.71138,0.0046383
188,12.5623,1.71626,0.00472022
188.5,12.6071,1.72635,0.00472
189,12.6584,1.72708,0.00472
189.5,12.7052,1.72633,0.00472002
190,12.7508,1.72919,0.0044294
190.5,12.8005,1.73054,0.00210295
191,12.8477,1.73724,0.000700901
191.5,12.8967,1.73058,-0.000549007
192,12.9437,1.73782,-0.00053951
192.5,12.9906,1.74669,0.00113572
193,13.0382,1.74697,0.00381121
193.5,13.0848,1.74443,0.0034634
194,13.1338,1.75518,0.00219079
194.5,13.179,1.74764,0.00215983
195,13.2273,1.74957,0.000631492
195.5,13.2746,1.75579,-0.00107233
196,13.323,1.75724,-0.00160147
196.5,13.3703,1.76425,0.00205587
197,13.4186,1.77159,0.00350935
197.5,13.4647,1.77917,0.00360795
198,13.5124,1.76674,0.000512957
198.5,13.5605,1.76575,-0.00201133
199,13.6092,1.76906,-0.00339858
199.5,13.6552,1.7779,-0.00186524
200,13.7026,1.78272,-0.00214099
200.5,13.7508,1.79597,-0.00157961
201,13.7978,1.78441,0.000733426
201.5,13.8459,1.78991,0.000688084
202,13.8942,1.79529,0.00196889
202.5,13.9404,1.79855,0.00151007
203,13.989,1.80405,-0.000652373
203.5,14.0364,1.80661,-0.00193628
204,14.0837,1.82017,-0.00176919
204.5,14.1305,1.8171,-0.00197095
205,14.1795,1.82096,-0.00277561
205.5,14.2261,1.82728,-0.00198133
206,14.2736,1.83022,-0.00345015
206.5,14.3216,1.8341,-0.00481203
207,14.369,1.84349,-0.00332105
207.5,14.4162,1.84994,-0.00340011
208,14.4636,1.85554,-0.0034
208.5,14.5114,1.86176,-0.00340003
209,14.5596,1.865,-0.00343037
209.5,14.6047,1.87524,-0.00471804
210,14.6547,1.87306,-0.00476084
210.5,14.7024,1.88918,-0.00738869
211,14.7501,1.88776,-0.00867445
211.5,14.7975,1.88989,-0.00741746
212,14.8456,1.90483,-0.00771012
212.5,14.8934,1.91812,-0.00770598
213,14.9407,1.91905,-0.00769004
213.5,14.9889,1.92956,-0.0104096
214,15.0368,1.94692,-0.011731
214.5,15.0839,1.95587,-0.0117496
215,15.1311,1.95772,-0.0131481
215.5,15.1796,1.98098,-0.0117769
216,15.2272,1.98827,-0.0125629
216.5,15.2748,1.999,-0.0146082
217,15.3232,2.0105,-0.0161287
217.5,15.3685,2.02134,-0.0161395
218,15.4189,2.03984,-0.0155698
218.5,15.4659,2.06339,-0.0120333
219,15.5133,2.07233,-0.0106422
219.5,15.5612,2.08577,-0.0113909
220,15.6074,2.10325,-0.0145909
220.5,15.657,2.11593,-0.0171197
221,15.7053,2.14154,-0.0184502
221.5,15.7524,2.15879,-0.0198221
222,15.7993,2.17566,-0.019717
222.5,15.8493,2.20064,-0.0236574
223,15.8977,2.2249,-0.0254641
223.5,15.9444,2.25342,-0.02548
224,15.9924,2.27408,-0.025477
224.5,16.0407,2.30055,-0.0251513
225,16.0879,2.32698,-0.0249608
225.5,16.1356,2.35833,-0.022813
226,16.1831,2.39905,-0.0209477
226.5,16.232,2.44138,-0.0212966
227,16.28,2.47728,-0.0230429
227.5,16.3287,2.52322,-0.0258255
228,16.3762,2.57889,-0.0261411
228.5,16.4243,2.64257,-0.0240553
229,16.4728,2.68947,-0.0228256
229.5,16.5213,2.76571,-0.0265563
230,16.5694,2.83685,-0.0291959
230.5,16.6175,2.91393,-0.0306257
231,16.6667,3.01029,-0.033256
231.5,16.7155,3.11586,-0.0351289
232,16.7644,3.23839,-0.0351314
232.5,16.8149,3.38941,-0.0364338
233,16.8641,3.54522,-0.0377749
233.5,16.9117,3.72912,-0.0408488
234,16.9648,3.9303,-0.0427077
234.5,17.0133,4.0943,-0.0434858
235,17.0637,4.21916,-0.0457067
235.5,17.1123,4.26692,-0.0469312
236,17.1595,4.24998,-0.04972
236.5,17.2056,4.14435,-0.0503954
237,17.252,4.01589,-0.0511649
237.5,17.2984,3.83901,-0.051829
238,17.3438,3.68794,-0.0558119
238.5,17.3906,3.54902,-0.0584955
239,17.4361,3.4509,-0.0597295
239.5,17.4831,3.36443,-0.0597334
240,17.5293,3.3211,-0.0599626
240.5,17.5772,3.29715,-0.0617301
241,17.6244,3.29084,-0.0633727
241.5,17.6717,3.30009,-0.0654474
242,17.72,3.31767,-0.0699783
242.5,17.7674,3.35247,-0.0739073
243,17.8149,3.3967,-0.0782101
243.5,17.862,3.41948,-0.0795778
244,17.9106,3.4648,-0.0807517
244.5,17.9585,3.51659,-0.0854553
245,18.0075,3.56672,-0.0895978
245.5,18.0558,3.60407,-0.0931272
246,18.104,3.66877,-0.0988133
246.5,18.1517,3.71709,-0.105634
247,18.1994,3.76843,-0.111925
247.5,18.2475,3.83644,-0.115156
248,18.2958,3.89771,-0.116242
248.5,18.345,3.94067,-0.119111
249,18.3912,4.00701,-0.122781
249.5,18.4413,4.07596,-0.125112
250,18.49,4.14082,-0.128649
250.5,18.5381,4.21038,-0.131672
251,18.5866,4.27659,-0.138146
251.5,18.6349,4.34098,-0.142045
252,18.684,4.41901,-0.147263
252.5,18.7321,4.486,-0.152302
253,18.7802,4.56661,-0.156968
253.5,18.8294,4.64434,-0.161637
254,18.8785,4.71826,-0.167489
254.5,18.9264,4.79452,-0.173201
255,18.9753,4.87247,-0.179065
255.5,19.0245,4.95779,-0.184958
256,19.0725,5.03962,-0.190223
256.5,19.1217,5.12521,-0.196323
257,19.1707,5.21389,-0.202366
257.5,19.2192,5.30506,-0.209253
258,19.2685,5.39077,-0.217821
258.5,19.3164,5.48511,-0.224848
259,19.366,5.57883,-0.232273
259.5,19.4147,5.66437,-0.239693
260,19.463,5.75651,-0.248179
260.5,19.5118,5.85547,-0.256605
261,19.5615,5.95881,-0.263901
261.5,19.6099,6.04923,-0.274305
262,19.6578,6.15424,-0.28206
262.5,19.7074,6.24868,-0.291277
263,19.7563,6.34166,-0.302632
263.5,19.8045,6.43889,-0.312621
264,19.8551,6.52801,-0.32292
264.5,19.9034,6.61654,-0.33191
265,19.9528,6.71417,-0.343478
265.5,20.0023,6.78988,-0.3549
266,20.0501,6.87158,-0.366053
266.5,20.0982,6.94895,-0.378356
267,20.1474,7.01312,-0.386913
267.5,20.1969,7.08247,-0.398764
268,20.2451,7.12615,-0.413414
268.5,20.2931,7.18089,-0.421937
269,20.3419,7.20448,-0.434633
269.5,20.3897,7.22121,-0.453712
270,20.4375,7.23636,-0.469964
270.5,20.4873,7.22889,-0.484525
271,20.5335,7.1914,-0.497206
271.5,20.5816,7.15607,-0.509845
272,20.6291,7.10759,-0.522989
272.5,20.6754,7.03006,-0.536195
273,20.7226,6.91919,-0.547541
273.5,20.7694,6.80336,-0.559577
274,20.8149,6.67102,-0.571638
274.5,20.8605,6.50891,-0.58377
275,20.907,6.31898,-0.599115
275.5,20.9524,6.11601,-0.611508
276,20.9992,5.89068,-0.623458
276.5,21.0432,5.653,-0.63501
277,21.0874,5.41303,-0.646351
277.5,21.1317,5.16343,-0.657581
278,21.177,4.91176,-0.665501
278.5,21.2217,4.65982,-0.672747
279,21.2665,4.4294,-0.68001
279.5,21.311,4.19769,-0.687168
280,21.3564,3.97212,-0.695115
280.5,21.4009,3.76616,-0.702703
281,21.447,3.57113,-0.709236
281.5,21.4919,3.39341,-0.717943
282,21.5376,3.21132,-0.724917
282.5,21.5833,3.04759,-0.732037
283,21.6285,2.89404,-0.735335
283.5,21.6729,2.77197,-0.73929
284,21.7201,2.64334,-0.742981
284.5,21.7661,2.52423,-0.74766
285,21.812,2.4248,-0.751773
285.5,21.8583,2.33314,-0.756831
286,21.9051,2.24455,-0.761662
286.5,21.9517,2.15501,-0.766156
287,21.9977,2.10663,-0.772862
287.5,22.0446,2.03365,-0.77968
288,22.0913,1.96949,-0.784812
288.5,22.1383,1.92396,-0.788902
289,22.1857,1.88816,-0.792225
289.5,22.2322,1.84411,-0.793715
290,22.2793,1.81775,-0.794403
290.5,22.3265,1.77964,-0.795224
291,22.3739,1.74865,-0.797535
291.5,22.4204,1.73176,-0.799901
292,22.4673,1.71271,-0.80084
292.5,22.5151,1.69087,-0.80208
293,22.5625,1.68895,-0.802502
293.5,22.6093,1.66767,-0.804633
294,22.6572,1.648,-0.807757
294.5,22.7042,1.63559,-0.809806
295,22.7521,1.61157,-0.811902
295.5,22.8001,1.60822,-0.814883
296,22.8472,1.59344,-0.818785
296.5,22.8947,1.59246,-0.81876
297,22.9425,1.58874,-0.818756
297.5,22.9899,1.58583,-0.820112
298,23.0366,1.57274,-0.821593
298.5,23.086,1.56738,-0.823754
299,23.1337,1.56561,-0.8259
299.5,23.1813,1.5521,-0.828972
300,23.2291,1.54642,-0.833832
300.5,23.2773,1.54015,-0.838415
301,23.3248,1.5382,-0.843601
301.5,23.3718,1.52852,-0.847
302,23.4205,1.53315,-0.846968
302.5,23.4688,1.5277,-0.849654
303,23.516,1.51784,-0.851187
303.5,23.5636,1.51346,-0.852384
304,23.6114,1.51081,-0.855364
304.5,23.6595,1.49362,-0.857662
305,23.7069,1.50095,-0.861209
305.5,23.7552,1.49821,-0.862672
306,23.8014,1.50136,-0.864993
306.5,23.851,1.492,-0.865627
307,23.8994,1.4959,-0.866965
307.5,23.9474,1.49439,-0.869579
308,23.9948,1.4922,-0.872718
308.5,24.0438,1.48698,-0.875338
309,24.0902,1.48477,-0.877188
309.5,24.1387,1.48802,-0.879425
310,24.1868,1.47365,-0.881584
310.5,24.2325,1.47032,-0.885346
311,24.283,1.4726,-0.890773
311.5,24.3298,1.46156,-0.892644
312,24.3775,1.46441,-0.894167
312.5,24.4259,1.45884,-0.896932
313,24.4739,1.4634,-0.89693
313.5,24.5218,1.45975,-0.898338
314,24.5694,1.45184,-0.898313
314.5,24.6178,1.45987,-0.90163
315,24.6661,1.45136,-0.90302
315.5,24.7135,1.44908,-0.903263
316,24.7592,1.44676,-0.905982
316.5,24.8096,1.44131,-0.90753
317,24.8577,1.43339,-0.909416
317.5,24.9041,1.43203,-0.914148
318,24.9538,1.4217,-0.920822
318.5,25.0014,1.43384,-0.921961
319,25.049,1.43023,-0.922969
319.5,25.0973,1.42304,-0.923996
320,25.145,1.4134,-0.92504
320.5,25.1937,1.42503,-0.926501
321,25.2411,1.42133,-0.929701
321.5,25.289,1.42301,-0.932861
322,25.3374,1.42226,-0.936076
322.5,25.3861,1.4179,-0.937455
323,25.4337,1.4138,-0.941724
323.5,25.4815,1.41495,-0.944712
324,25.5297,1.42093,-0.945583
324.5,25.5782,1.41755,-0.947835
325,25.6263,1.40422,-0.948744
325.5,25.6744,1.39865,-0.949869
326,25.7216,1.39875,-0.951368
326.5,25.7698,1.40639,-0.9541
327,25.8184,1.40113,-0.957048
327.5,25.8638,1.4014,-0.961373
328,25.9142,1.39094,-0.964671
328.5,25.9621,1.39221,-0.966996
329,26.0103,1.38213,-0.968317
329.5,26.0577,1.38299,-0.969934
330,26.1052,1.3842,-0.972439
330.5,26.1541,1.38438,-0.974248
331,26.2034,1.36829,-0.977615
331.5,26.251,1.38146,-0.977806
332,26.2993,1.37303,-0.977718
332.5,26.3477,1.37078,-0.979653
333,26.3964,1.36084,-0.983509
333.5,26.4445,1.3617,-0.985118
334,26.4922,1.35755,-0.985977
334.5,26.5407,1.35433,-0.991372
335,26.5882,1.35167,-0.995742
335.5,26.6367,1.35946,-0.998265
336,26.6848,1.33802,-0.99952
336.5,26.733,1.33826,-1.003
337,26.7812,1.3438,-1.00504
337.5,26.8288,1.34726,-1.00771
338,26.8773,1.33609,-1.00953
338.5,26.9264,1.33282,-1.01322
339,26.9739,1.33908,-1.01647
339.5,27.0206,1.33485,-1.01757
340,27.0695,1.33439,-1.01626
340.5,27.1184,1.32951,-1.01723
341,27.1663,1.32527,-1.01897
341.5,27.2152,1.33218,-1.01967
342,27.2627,1.33251,-1.02183
342.5,27.3107,1.31981,-1.02769
343,27.359,1.32023,-1.03085
343.5,27.4072,1.31642,-1.03212
344,27.4557,1.32082,-1.03383
344.5,27.5041,1.31846,-1.03383
345,27.5529,1.30487,-1.03518
345.5,27.6006,1.30109,-1.0368
346,27.6477,1.30211,-1.04
346.5,27.6968,1.29774,-1.04153
347,27.7444,1.30347,-1.04103
347.5,27.7938,1.30151,-1.0416
348,27.8422,1.308,-1.04572
348.5,27.8901,1.30077,-1.04891
349,27.9394,1.29924,-1.05332
349.5,27.9882,1.30149,-1.0546
350,28.0351,1.29345,-1.0572
350.5,28.0842,1.29665,-1.06026
351,28.133,1.29947,-1.06201
351.5,28.1801,1.29555,-1.06205
352,28.2295,1.29167,-1.06239
352.5,28.2748,1.29159,-1.06479
353,28.3264,1.29475,-1.06685
353.5,28.3743,1.29063,-1.06986
354,28.4228,1.2766,-1.0701
354.5,28.4716,1.28605,-1.07275
355,28.5193,1.2798,-1.07307
355.5,28.5682,1.27917,-1.07533
356,28.6169,1.27769,-1.07667
356.5,28.6653,1.27605,-1.0773
357,28.7132,1.2767,-1.07648
357.5,28.7623,1.28324,-1.07571
358,28.8099,1.2762,-1.07636
358.5,28.8591,1.27722,-1.0782
359,28.9079,1.26514,-1.08191
359.5,28.9558,1.27547,-1.08581
360,29.0049,1.27086,-1.08878
360.5,29.053,1.2716,-1.09254
361,29.1024,1.26162,-1.09598
361.5,29.1511,1.25087,-1.09597
362,29.1988,1.26299,-1.09692
362.5,29.2478,1.2644,-1.09747
363,29.2962,1.25704,-1.099
363.5,29.343,1.24301,-1.09992
364,29.3932,1.24546,-1.10078
364.5,29.4407,1.24937,-1.10434
365,29.4905,1.24608,-1.1075
365.5,29.5387,1.25218,-1.1085
366,29.5882,1.24462,-1.10689
366.5,29.6368,1.24572,-1.10902
367,29.6848,1.2398,-1.10925
367.5,29.7338,1.23826,-1.10925
368,29.7824,1.23775,-1.11052
368.5,29.8311,1.23868,-1.11208
369,29.8798,1.23781,-1.11343
369.5,29.9285,1.23565,-1.11471
370,29.977,1.23725,-1.11624
370.5,30.0258,1.21927,-1.11761
371,30.074,1.23448,-1.11898
371.5,30.1219,1.22649,-1.121
372,30.1703,1.22591,-1.12301
372.5,30.2194,1.21927,-1.12495
373,30.2692,1.21203,-1.12617
373.5,30.3173,1.21384,-1.12749
374,30.3654,1.21537,-1.12649
374.5,30.4144,1.20182,-1.12649
375,30.4634,1.20711,-1.1265
375.5,30.5124,1.20746,-1.12779
376,30.5608,1.21176,-1.12911
376.5,30.6099,1.20424,-1.13038
377,30.6585,1.20581,-1.13045
377.5,30.7063,1.19727,-1.13175
378,30.7564,1.19763,-1.1331
378.5,30.8034,1.19648,-1.13454
379,30.8529,1.2029,-1.13581
379.5,30.9014,1.20565,-1.13761
380,30.9488,1.19427,-1.1389
380.5,30.9994,1.19181,-1.14059
381,31.0482,1.18495,-1.14297
381.5,31.0957,1.1857,-1.14309
382,31.1457,1.18343,-1.14624
382.5,31.1954,1.17573,-1.14756
383,31.2431,1.18219,-1.14775
383.5,31.2924,1.17547,-1.14803
384,31.3416,1.17174,-1.14821
384.5,31.39,1.16485,-1.1506
385,31.4388,1.17168,-1.15075
385.5,31.4879,1.16947,-1.15229
386,31.5374,1.17385,-1.15229
386.5,31.5859,1.16547,-1.15229
387,31.6323,1.16592,-1.15092
387.5,31.6832,1.17203,-1.14908
388,31.7322,1.16948,-1.14666
388.5,31.7812,1.16742,-1.14537
389,31.8309,1.16768,-1.14564
389.5,31.8788,1.15947,-1.14832
390,31.9275,1.16873,-1.15149
390.5,31.9762,1.15858,-1.15336
391,32.0246,1.16426,-1.15634
391.5,32.0744,1.14996,-1.15773
392,32.1234,1.15404,-1.16284
392.5,32.1713,1.14476,-1.16611
393,32.2207,1.14992,-1.16804
393.5,32.2675,1.14843,-1.16621
394,32.3185,1.14887,-1.16532
394.5,32.3673,1.14203,-1.16403
395,32.4163,1.14793,-1.16378
395.5,32.4656,1.15591,-1.16404
396,32.5141,1.15432,-1.16535
396.5,32.5635,1.14097,-1.16419
397,32.6118,1.15097,-1.16243
397.5,32.6606,1.14339,-1.16251
398,32.7095,1.14913,-1.1625
398.5,32.7592,1.15398,-1.16379
399,32.8082,1.15386,-1.16508
399.5,32.8565,1.14894,-1.16711
400,32.9034,1.15126,-1.16799
400.5,32.9542,1.14752,-1.16929
401,33.0032,1.15011,-1.16926
401.5,33.0525,1.15247,-1.17142
402,33.1008,1.15104,-1.17358
402.5,33.1483,1.15047,-1.1751
403,33.1983,1.16076,-1.17641
403.5,33.2477,1.14685,-1.17644
404,33.2965,1.16193,-1.17509
404.5,33.3453,1.16412,-1.17643
405,33.3948,1.16214,-1.17512
405.5,33.4439,1.16546,-1.17382
406,33.4923,1.1667,-1.17381
406.5,33.5412,1.17316,-1.17505
407,33.5907,1.16189,-1.17718
407.5,33.6393,1.17004,-1.17842
408,33.6884,1.17766,-1.17909
408.5,33.7372,1.17341,-1.1783
409,33.7855,1.17391,-1.17761
409.5,33.8348,1.17004,-1.17735
410,33.8836,1.17467,-1.17779
410.5,33.9328,1.18218,-1.18004
411,33.9824,1.17919,-1.18006
411.5,34.0312,1.17811,-1.18258
412,34.0801,1.1861,-1.18528
412.5,34.1291,1.17781,-1.1896
413,34.1781,1.19046,-1.18983
413.5,34.2259,1.19934,-1.19115
414,34.2765,1.20105,-1.19115
414.5,34.3257,1.20392,-1.19115
415,34.3746,1.201,-1.18981
415.5,34.4247,1.20945,-1.18983
416,34.4734,1.21157,-1.19114
416.5,34.523,1.21247,-1.1934
417,34.5712,1.21704,-1.19426
417.5,34.6205,1.21043,-1.19554
418,34.6689,1.21685,-1.19682
418.5,34.7188,1.2217,-1.19818
419,34.7674,1.21979,-1.1995
419.5,34.8166,1.22166,-1.20025
420,34.866,1.23094,-1.20236
420.5,34.9146,1.23651,-1.2048
421,34.9638,1.23556,-1.20555
421.5,35.0128,1.23097,-1.20687
422,35.0623,1.24163,-1.20799
422.5,35.1115,1.24837,-1.21131
423,35.1605,1.24961,-1.21419
423.5,35.2091,1.24686,-1.21481
424,35.2593,1.26081,-1.21467
424.5,35.308,1.26019,-1.21172
425,35.3572,1.2606,-1.21147
425.5,35.4071,1.26818,-1.21017
426,35.4561,1.27556,-1.21312
426.5,35.5045,1.28929,-1.21586
427,35.5549,1.28409,-1.21846
427.5,35.6039,1.28767,-1.21991
428,35.6521,1.29457,-1.2226
428.5,35.7019,1.30317,-1.22371
429,35.751,1.30608,-1.22376
429.5,35.8009,1.31594,-1.22495
430,35.85,1.32569,-1.2277
430.5,35.8995,1.32835,-1.23237
431,35.9462,1.33333,-1.23513
431.5,35.9982,1.34623,-1.23822
432,36.0473,1.35485,-1.23891
432.5,36.0969,1.36154,-1.23954
433,36.146,1.36699,-1.24171
433.5,36.1952,1.37238,-1.24721
434,36.2447,1.39293,-1.25346
434.5,36.294,1.40241,-1.25173
435,36.3442,1.39952,-1.25092
435.5,36.3926,1.41507,-1.25494
436,36.4409,1.42443,-1.25824
436.5,36.4922,1.43201,-1.264
437,36.5407,1.44106,-1.26921
437.5,36.5902,1.45347,-1.27507
438,36.6404,1.46078,-1.2766
438.5,36.6905,1.47563,-1.27741
439,36.7388,1.4845,-1.2802
439.5,36.7884,1.49979,-1.28234
440,36.8388,1.51198,-1.28737
440.5,36.8879,1.5337,-1.29
441,36.9373,1.54459,-1.29409
441.5,36.9871,1.56235,-1.29719
442,37.0365,1.57625,-1.30011
442.5,37.0865,1.58681,-1.30551
443,37.1364,1.60894,-1.31016
443.5,37.1856,1.62306,-1.31405
444,37.2345,1.62892,-1.32335
444.5,37.2849,1.64848,-1.32617
445,37.3344,1.66012,-1.33134
445.5,37.3837,1.67387,-1.33673
446,37.4323,1.68967,-1.34121
446.5,37.482,1.69254,-1.34896
447,37.5311,1.71349,-1.35523
447.5,37.5819,1.73245,-1.36236
448,37.631,1.7452,-1.36815
448.5,37.6811,1.76273,-1.37371
449,37.7305,1.78493,-1.37835
449.5,37.7801,1.80056,-1.38586
450,37.8298,1.81933,-1.39263
450.5,37.8795,1.82358,-1.39922
451,37.9292,1.84507,-1.40614
451.5,37.9784,1.84904,-1.41676
452,38.0284,1.87516,-1.42559
452.5,38.0777,1.89216,-1.43368
453,38.1282,1.90104,-1.44449
453.5,38.1763,1.91684,-1.45193
454,38.2265,1.92961,-1.46071
454.5,38.276,1.95035,-1.4687
455,38.3257,1.96334,-1.47797
455.5,38.3748,1.98605,-1.48536
456,38.4249,1.99129,-1.49331
456.5,38.4738,2.0084,-1.50411
457,38.5234,2.03047,-1.51504
457.5,38.5717,2.03647,-1.52523
458,38.6233,2.05885,-1.53457
458.5,38.6721,2.06767,-1.54581
459,38.7212,2.08102,-1.5589
459.5,38.772,2.09743,-1.57138
460,38.8213,2.10649,-1.58405
460.5,38.8712,2.11244,-1.59585
461,38.92,2.11389,-1.61038
461.5,38.9695,2.12469,-1.62639
462,39.0185,2.13444,-1.64263
462.5,39.0689,2.13111,-1.65477
463,39.1182,2.16292,-1.66844
463.5,39.1683,2.15052,-1.68002
464,39.218,2.15804,-1.69162
464.5,39.2668,2.1638,-1.704
465,39.3167,2.17165,-1.7168
465.5,39.3665,2.1835,-1.73214
466,39.4157,2.18059,-1.7482
466.5,39.4666,2.17873,-1.76564
467,39.5149,2.18109,-1.7811
467.5,39.5641,2.17797,-1.79464
468,39.6146,2.17235,-1.80894
468.5,39.664,2.16725,-1.82349
469,39.7119,2.16571,-1.83913
469.5,39.7633,2.15233,-1.85344
470,39.8128,2.15467,-1.86876
470.5,39.8616,2.13213,-1.88486
471,39.9112,2.1251,-1.90214
471.5,39.9607,2.10401,-1.91785
472,40.0096,2.0923,-1.93308
472.5,40.0595,2.08057,-1.94945
473,40.1079,2.0565,-1.96677
473.5,40.1576,2.03374,-1.98363
474,40.2074,2.01463,-1.99859
474.5,40.2564,1.98768,-2.01547
475,40.3054,1.96386,-2.03143
475.5,40.3541,1.93858,-2.04505
476,40.4047,1.89954,-2.05908
476.5,40.4534,1.87262,-2.07378
477,40.5024,1.8442,-2.08817
477.5,40.5513,1.81346,-2.10086
478,40.6017,1.78382,-2.11243
478.5,40.65,1.74561,-2.12663
479,40.6992,1.71034,-2.14232
479.5,40.7485,1.67359,-2.15596
480,40.7979,1.63602,-2.1698
480.5,40.8473,1.60001,-2.18279
481,40.896,1.55522,-2.19684
481.5,40.9456,1.51709,-2.20977
482,40.9939,1.46935,-2.22266
482.5,41.0425,1.42637,-2.23494
483,41.092,1.38225,-2.24574
483.5,41.1418,1.34691,-2.25575
484,41.1916,1.29886,-2.26286
484.5,41.2401,1.24911,-2.26982
485,41.29,1.21965,-2.27689
485.5,41.339,1.16614,-2.28455
486,41.388,1.12511,-2.29069
486.5,41.4354,1.08032,-2.29633
487,41.4846,1.04103,-2.30567
487.5,41.5363,1.00102,-2.31301
488,41.5857,0.969335,-2.31997
488.5,41.6349,0.927864,-2.32307
489,41.6848,0.906699,-2.32982
489.5,41.7335,0.881639,-2.33524
490,41.7834,0.848804,-2.33717
490.5,41.8324,0.836371,-2.33714
491,41.8814,0.818972,-2.34057
491.5,41.9326,0.795069,-2.34396
492,41.9818,0.786041,-2.34728
492.5,42.031,0.764455,-2.35051
493,42.081,0.747735,-2.35071
493.5,42.1303,0.737359,-2.35211
494,42.1802,0.721783,-2.35111
494.5,42.2289,0.721895,-2.35215
495,42.279,0.695614,-2.35482
495.5,42.3292,0.691935,-2.3593
496,42.3787,0.684396,-2.35936
496.5,42.4287,0.678924,-2.36067
497,42.4769,0.664438,-2.36217
497.5,42.5274,0.661582,-2.36354
498,42.5769,0.641118,-2.3622
498.5,42.6269,0.64513,-2.3622
499,42.6759,0.638634,-2.36351
499.5,42.7256,0.635246,-2.36563
500,42.7752,0.637572,-2.36663
500.5,42.825,0.614992,-2.36649
501,42.8749,0.625858,-2.36651
501.5,42.924,0.631613,-2.36649
502,42.9738,0.617956,-2.36516
502.5,43.0237,0.614884,-2.36522
503,43.0734,0.614101,-2.36252
503.5,43.1229,0.616103,-2.36392
504,43.173,0.616576,-2.36242
504.5,43.2231,0.608021,-2.36382
505,43.2729,0.607166,-2.36695
505.5,43.323,0.598889,-2.3698
506,43.3721,0.599341,-2.37161
506.5,43.422,0.597802,-2.37318
507,43.4711,0.598686,-2.37323
507.5,43.5209,0.590287,-2.37159
508,43.5713,0.599596,-2.37102
508.5,43.6203,0.593886,-2.37021
509,43.6702,0.600912,-2.37021
509.5,43.7205,0.608159,-2.36936
510,43.7709,0.619011,-2.3676
510.5,43.8207,0.632718,-2.36759
511,43.87,0.644466,-2.36789
511.5,43.9198,0.648882,-2.36962
512,43.9699,0.661591,-2.3708
512.5,44.0193,0.655745,-2.37109
513,44.0696,0.659422,-2.36827
513.5,44.1192,0.662876,-2.36803
514,44.1688,0.658655,-2.36704
514.5,44.2186,0.6601,-2.3672
515,44.269,0.655874,-2.36836
515.5,44.3187,0.664461,-2.36843
516,44.3689,0.661377,-2.3684
516.5,44.4184,0.653223,-2.36998
517,44.4684,0.655165,-2.37077
517.5,44.5187,0.650673,-2.36967
518,44.5683,0.649602,-2.36882
518.5,44.6179,0.644152,-2.3702
519,44.6686,0.645558,-2.37131
519.5,44.7185,0.649422,-2.37151
520,44.7676,0.647572,-2.3714
520.5,44.8182,0.63662,-2.37
521,44.8677,0.638564,-2.37
521.5,44.9167,0.640803,-2.37129
522,44.9667,0.63634,-2.37141
522.5,45.0177,0.631938,-2.37261
523,45.0662,0.633195,-2.37396
523.5,45.1166,0.630511,-2.37399
524,45.1664,0.634835,-2.37569
524.5,45.2154,0.628978,-2.37538
525,45.2653,0.6252,-2.37637
525.5,45.3154,0.625296,-2.37512
526,45.3656,0.623711,-2.37508
526.5,45.4154,0.6165,-2.37373
527,45.4641,0.617832,-2.37428
527.5,45.5155,0.611651,-2.37505
528,45.5649,0.606885,-2.37636
528.5,45.6157,0.614297,-2.37637
529,45.6656,0.605623,-2.37353
529.5,45.7153,0.615431,-2.37223
530,45.7649,0.599954,-2.36957
530.5,45.8145,0.603339,-2.36957
531,45.8646,0.597195,-2.37096
531.5,45.9148,0.587329,-2.37369
532,45.9636,0.583959,-2.37501
532.5,46.0142,0.572512,-2.37661
533,46.065,0.563924,-2.37922
533.5,46.1139,0.559567,-2.37745
534,46.1645,0.554627,-2.37461
534.5,46.2152,0.544264,-2.37176
535,46.2647,0.543494,-2.3702
535.5,46.3145,0.538137,-2.37087
536,46.3641,0.526001,-2.37199
536.5,46.415,0.519734,-2.37359
537,46.4639,0.508618,-2.37629
537.5,46.5133,0.510679,-2.37903
538,46.5651,0.505122,-2.37904
538.5,46.6143,0.493262,-2.37629
539,46.6628,0.486888,-2.37183
539.5,46.7145,0.47333,-2.36709
540,46.7651,0.480481,-2.36557
540.5,46.8155,0.465697,-2.36475
541,46.864,0.456818,-2.37051
541.5,46.9154,0.455244,-2.37372
542,46.9655,0.442825,-2.37626
542.5,47.0143,0.455239,-2.37768
543,47.0664,0.433731,-2.38049
543.5,47.1156,0.436709,-2.37943
544,47.1666,0.440959,-2.37781
544.5,47.2165,0.43878,-2.37445
545,47.2673,0.435174,-2.37145
545.5,47.3175,0.438397,-2.37305
546,47.3648,0.439338,-2.37373
546.5,47.4173,0.430062,-2.37364
547,47.4672,0.430258,-2.37506
547.5,47.5164,0.427242,-2.37506
548,47.5668,0.434651,-2.3752
548.5,47.6165,0.426424,-2.378
549,47.6671,0.42093,-2.37967
549.5,47.7173,0.424955,-2.38268
550,47.7673,0.413138,-2.38431
550.5,47.8179,0.421711,-2.38292
551,47.8677,0.420762,-2.38033
551.5,47.9175,0.422581,-2.37591
552,47.9678,0.42378,-2.37016
552.5,48.0183,0.423469,-2.36817
553,48.0679,0.42203,-2.37033
553.5,48.1182,0.41179,-2.37194
554,48.1679,0.426264,-2.37374
554.5,48.2188,0.414153,-2.37913
555,48.2673,0.411207,-2.38437
555.5,48.3173,0.39854,-2.38425
556,48.3682,0.408055,-2.38304
556.5,48.418,0.396682,-2.37964
557,48.4686,0.394732,-2.37707
557.5,48.518,0.400837,-2.37577
558,48.5673,0.41006,-2.37155
558.5,48.6179,0.410744,-2.37022
559,48.6687,0.400666,-2.37191
559.5,48.7181,0.401201,-2.372
560,48.7682,0.392738,-2.37189
560.5,48.8188,0.393045,-2.37528
561,48.8692,0.385494,-2.37718
561.5,48.9192,0.385235,-2.38052
562,48.9688,0.376346,-2.38055
562.5,49.0193,0.378134,-2.37959
563,49.068,0.376764,-2.37917
563.5,49.1197,0.374302,-2.38249
564,49.1697,0.363022,-2.37951
564.5,49.2192,0.37211,-2.37228
565,49.269,0.364439,-2.37098
565.5,49.3191,0.370871,-2.3748
566,49.3695,0.354753,-2.3781
566.5,49.4201,0.360808,-2.37959
567,49.4699,0.357024,-2.38
567.5,49.5192,0.361155,-2.37845
568,49.5697,0.363132,-2.37581
568.5,49.6195,0.351928,-2.37583
569,49.6695,0.35531,-2.37574
569.5,49.7199,0.354807,-2.37571
570,49.7702,0.356415,-2.37439
570.5,49.8195,0.355647,-2.37297
571,49.8702,0.353537,-2.37428
571.5,49.918,0.346884,-2.37428
572,49.9707,0.352253,-2.37428
572.5,50.0209,0.34854,-2.37428
573,50.0706,0.339165,-2.37427
573.5,50.1214,0.351017,-2.37433
574,50.1713,0.341148,-2.37303
574.5,50.2216,0.343503,-2.37429
575,50.271,0.338271,-2.37557
575.5,50.3219,0.340852,-2.37418
576,50.372,0.336102,-2.37417
576.5,50.4211,0.334761,-2.37417
577,50.4719,0.338073,-2.37288
577.5,50.522,0.325697,-2.3742
578,50.5733,0.325849,-2.37409
578.5,50.6241,0.323498,-2.37669
579,50.6732,0.317067,-2.37816
579.5,50.7228,0.3232,-2.37942
580,50.7733,0.322664,-2.38066
580.5,50.8237,0.322444,-2.37944
581,50.8737,0.321493,-2.3795
581.5,50.9251,0.316607,-2.37682
582,50.9752,0.326985,-2.37548
582.5,51.0243,0.332018,-2.37385
583,51.0757,0.317744,-2.37418
583.5,51.1254,0.316861,-2.3756
584,51.176,0.310914,-2.3756
584.5,51.2263,0.31052,-2.37462
585,51.2767,0.316068,-2.37551
585.5,51.3274,0.315299,-2.37592
586,51.3771,0.306894,-2.37692
586.5,51.4259,0.307393,-2.37692
587,51.478,0.306746,-2.3775
587.5,51.528,0.303374,-2.37823
588,51.579,0.295848,-2.37821
588.5,51.629,0.295717,-2.37692
589,51.6791,0.287201,-2.37585
589.5,51.7297,0.290373,-2.37692
590,51.7802,0.284932,-2.37696
590.5,51.829,0.28882,-2.3756
591,51.8799,0.286824,-2.37537
591.5,51.9283,0.283755,-2.37447
592,51.9801,0.288834,-2.37475
592.5,52.0315,0.279325,-2.37294
593,52.0814,0.295802,-2.37168
593.5,52.1313,0.281771,-2.37296
594,52.1812,0.289335,-2.37392
594.5,52.2314,0.277316,-2.37427
595,52.2828,0.287977,-2.37231
595.5,52.332,0.27755,-2.37382
596,52.3815,0.271408,-2.37467
596.5,52.4335,0.285148,-2.37474
597,52.4827,0.274699,-2.37471
597.5,52.533,0.280262,-2.37615
598,52.5845,0.279042,-2.37897
598.5,52.6347,0.287261,-2.38044
599,52.6841,0.288429,-2.37988
599.5,52.7351,0.292966,-2.37911
600,52.7853,0.28832,-2.3791
600.5,52.8353,0.28622,-2.37781
601,52.8862,0.28279,-2.37695
601.5,52.9344,0.282993,-2.37856
602,52.9874,0.277268,-2.38189
602.5,53.0367,0.294395,-2.38186
603,53.0883,0.287385,-2.37926
603.5,53.138,0.295231,-2.37794
604,53.1883,0.292485,-2.37659
604.5,53.2399,0.291,-2.37659
605,53.2902,0.285746,-2.37533
605.5,53.3396,0.292405,-2.37395
606,53.3894,0.287272,-2.37395
606.5,53.4402,0.286267,-2.37421
607,53.4908,0.27799,-2.37614
607.5,53.5415,0.285177,-2.37663
608,53.5922,0.287034,-2.37734
608.5,53.6419,0.298281,-2.37539
609,53.6928,0.291544,-2.37538
609.5,53.7428,0.29475,-2.37672
610,53.793,0.292957,-2.3767
610.5,53.8442,0.292836,-2.37674
611,53.8935,0.289425,-2.37407
611.5,53.9414,0.294122,-2.37551
612,53.9938,0.303487,-2.37772
612.5,54.0439,0.303535,-2.37718
613,54.0948,0.295423,-2.37648
613.5,54.1444,0.298651,-2.37731
614,54.1944,0.305023,-2.37746
614.5,54.2455,0.294233,-2.37702
615,54.2959,0.309919,-2.37484
615.5,54.346,0.30671,-2.37626
616,54.3964,0.307882,-2.37627
616.5,54.4465,0.312392,-2.37459
617,54.4966,0.305384,-2.37461
617.5,54.547,0.301611,-2.37697
618,54.5975,0.304526,-2.38188
618.5,54.6464,0.311678,-2.38047
619,54.6981,0.307579,-2.379
619.5,54.7485,0.303945,-2.379
620,54.7984,0.311156,-2.379
620.5,54.8494,0.313549,-2.37736
621,54.898,0.305568,-2.37504
621.5,54.9493,0.305392,-2.37637
622,54.9994,0.305582,-2.37694
622.5,55.0503,0.304471,-2.37631
623,55.1002,0.308115,-2.37626
623.5,55.1509,0.313513,-2.37879
624,55.2013,0.306752,-2.3825
624.5,55.2518,0.302975,-2.38426
625,55.3021,0.312947,-2.38557
625.5,55.3528,0.314516,-2.38402
626,55.4035,0.316137,-2.38125
626.5,55.4533,0.321443,-2.37933
627,55.5047,0.330245,-2.37824
627.5,55.5541,0.327947,-2.37825
628,55.6041,0.321075,-2.37813
628.5,55.6551,0.326962,-2.37681
629,55.7063,0.32201,-2.37813
629.5,55.7565,0.324348,-2.38041
630,55.8069,0.322087,-2.38044
630.5,55.8568,0.325178,-2.38044
631,55.9074,0.323759,-2.38044
631.5,55.9583,0.333529,-2.38045
632,56.0085,0.34179,-2.37911
632.5,56.0595,0.334298,-2.37912
633,56.1108,0.347717,-2.37847
633.5,56.1604,0.345458,-2.37846
634,56.21,0.346392,-2.37714
634.5,56.2626,0.342709,-2.37846
635,56.3132,0.340632,-2.37908
635.5,56.364,0.345295,-2.38109
636,56.4151,0.344718,-2.38109
636.5,56.4661,0.350643,-2.37977
637,56.5163,0.348988,-2.37977
637.5,56.5668,0.347935,-2.37977
638,56.6176,0.349692,-2.38107
638.5,56.6684,0.349128,-2.38125
639,56.7185,0.355596,-2.3824
639.5,56.7697,0.349179,-2.3824
640,56.8206,0.347861,-2.3824
640.5,56.8711,0.352746,-2.38214
641,56.9223,0.34892,-2.37993
641.5,56.9724,0.344002,-2.37979
642,57.0226,0.345796,-2.3802
642.5,57.0733,0.343869,-2.38117
643,57.1235,0.349067,-2.37814
643.5,57.1747,0.35306,-2.37649
644,57.2252,0.351321,-2.37618
644.5,57.2757,0.342953,-2.37807
645,57.326,0.347079,-2.37933
645.5,57.3765,0.347742,-2.3815
646,57.427,0.348002,-2.3824
646.5,57.4784,0.354089,-2.38121
647,57.5284,0.350701,-2.38109
647.5,57.5791,0.350516,-2.38109
648,57.6291,0.351742,-2.38109
648.5,57.6796,0.349215,-2.38086
649,57.7308,0.34867,-2.38078
649.5,57.7818,0.336934,-2.38208
650,57.8315,0.344747,-2.38211
650.5,57.8831,0.343276,-2.38093
651,57.9327,0.337187,-2.38226
651.5,57.9842,0.350831,-2.3824
652,58.0348,0.3358,-2.38372
652.5,58.0859,0.341711,-2.3837
653,58.1365,0.340939,-2.38147
653.5,58.1873,0.35362,-2.37984
654,58.2389,0.351379,-2.37842
654.5,58.2877,0.353469,-2.38138
655,58.3394,0.347264,-2.38349
655.5,58.3893,0.343927,-2.38342
656,58.4407,0.342665,-2.38343
656.5,58.4914,0.343112,-2.38343
657,58.5423,0.33938,-2.38497
657.5,58.5931,0.322983,-2.38904
658,58.6432,0.325753,-2.39212
658.5,58.6953,0.323193,-2.39075
659,58.7451,0.324605,-2.38944
659.5,58.7969,0.329013,-2.38687
660,58.8473,0.316295,-2.38291
660.5,58.8974,0.325973,-2.37857
661,58.9472,0.325175,-2.37901
661.5,58.9983,0.320309,-2.38231
662,59.0497,0.322104,-2.38374
662.5,59.0996,0.326808,-2.38382
663,59.1506,0.329857,-2.38246
663.5,59.2008,0.319147,-2.3801
664,59.2513,0.322032,-2.3803
664.5,59.3023,0.321264,-2.38044
665,59.3531,0.326617,-2.38174
665.5,59.4034,0.319427,-2.38369
666,59.4537,0.316051,-2.38404
666.5,59.5049,0.31777,-2.38499
667,59.5553,0.305461,-2.38824
667.5,59.6049,0.310946,-2.38811
668,59.6558,0.302652,-2.38594
668.5,59.7052,0.300856,-2.38427
669,59.7546,0.297678,-2.3856
669.5,59.8076,0.298357,-2.38778
670,59.8586,0.299546,-2.38845
670.5,59.9093,0.299707,-2.38845
671,59.9595,0.301892,-2.38705
671.5,60.0101,0.312293,-2.3839
672,60.0606,0.318288,-2.38125
672.5,60.112,0.30419,-2.38025
673,60.1615,0.299481,-2.38252
673.5,60.2123,0.289927,-2.38387
674,60.263,0.291374,-2.3864
674.5,60.3135,0.298469,-2.3881
675,60.3649,0.295642,-2.38779
675.5,60.4151,0.294109,-2.38778
676,60.4656,0.292542,-2.38778
676.5,60.5173,0.282331,-2.38778
677,60.5667,0.301568,-2.38787
677.5,60.6166,0.295417,-2.38815
678,60.6691,0.290221,-2.3868
678.5,60.7181,0.291829,-2.38727
679,60.7701,0.29103,-2.38828
679.5,60.8217,0.298161,-2.38811
680,60.8715,0.303633,-2.38564
680.5,60.9239,0.301898,-2.38357
681,60.9748,0.300788,-2.38285
681.5,61.0233,0.301229,-2.38285
682,61.0765,0.303469,-2.38361
682.5,61.1274,0.305274,-2.38545
683,61.1794,0.299942,-2.3855
683.5,61.2304,0.296975,-2.38715
684,61.2787,0.309171,-2.38744
684.5,61.3313,0.302298,-2.38813
685,61.3829,0.29184,-2.38712
685.5,61.4339,0.298274,-2.38844
686,61.4826,0.299177,-2.38844
686.5,61.5353,0.296533,-2.38844
687,61.5866,0.287315,-2.38713
687.5,61.6365,0.286566,-2.3885
688,61.6887,0.291022,-2.38976
688.5,61.7379,0.291923,-2.38976
689,61.7886,0.289821,-2.3897
689.5,61.8404,0.286844,-2.39001
690,61.8905,0.284006,-2.38975
690.5,61.9407,0.284428,-2.38855
691,61.9909,0.279075,-2.3861
691.5,62.0424,0.286729,-2.38472
692,62.093,0.290778,-2.38443
692.5,62.1442,0.295475,-2.3832
693,62.1944,0.288224,-2.38477
693.5,62.2456,0.285112,-2.38835
694,62.296,0.286331,-2.38834
694.5,62.347,0.283715,-2.38965
695,62.3978,0.284693,-2.38965
695.5,62.4479,0.285878,-2.38965
696,62.4997,0.288942,-2.38968
696.5,62.5495,0.283062,-2.38834
697,62.6003,0.28802,-2.38768
697.5,62.6521,0.289535,-2.3859
698,62.702,0.279406,-2.38435
698.5,62.7521,0.282661,-2.38295
699,62.8034,0.277381,-2.38432
699.5,62.8534,0.279244,-2.38403
700,62.9038,0.273247,-2.38469
700.5,62.952,0.279334,-2.38684
701,63.0059,0.282126,-2.38815
701.5,63.0572,0.275518,-2.38956
702,63.107,0.266207,-2.39087
702.5,63.1578,0.273973,-2.39224
703,63.2087,0.274548,-2.38931
703.5,63.2587,0.277626,-2.38716
704,63.3106,0.276821,-2.38556
704.5,63.361,0.270507,-2.38549
705,63.4108,0.274974,-2.38563
705.5,63.4612,0.272924,-2.38626
706,63.5121,0.260765,-2.38704
706.5,63.5633,0.277822,-2.38958
707,63.6136,0.273301,-2.38955
707.5,63.6645,0.277941,-2.38981
708,63.7152,0.283348,-2.39086
708.5,63.7669,0.286473,-2.39086
709,63.8169,0.297824,-2.39234
709.5,63.8681,0.29303,-2.39033
710,63.9182,0.2998,-2.38953
710.5,63.9695,0.295892,-2.38832
711,64.0194,0.285034,-2.39237
711.5,64.0705,0.308226,-2.39422
712,64.1212,0.302592,-2.39104
712.5,64.1708,0.30959,-2.38948
713,64.2228,0.317277,-2.38866
713.5,64.2738,0.317,-2.38731
714,64.3247,0.312865,-2.38449
714.5,64.3759,0.322553,-2.38751
715,64.4267,0.313801,-2.38843
715.5,64.478,0.316659,-2.3873
716,64.528,0.316937,-2.38713
716.5,64.5797,0.321158,-2.38709
717,64.6314,0.316586,-2.38484
717.5,64.6813,0.317634,-2.38738
718,64.7331,0.316365,-2.39451
718.5,64.7838,0.321217,-2.39585
719,64.835,0.322447,-2.39625
719.5,64.8864,0.32687,-2.39333
720,64.9367,0.32365,-2.39331
720.5,64.9879,0.319823,-2.39403
721,65.039,0.319814,-2.3942
721.5,65.0894,0.315105,-2.39373
722,65.1404,0.323251,-2.39337
722.5,65.1891,0.326449,-2.39214
723,65.2421,0.327383,-2.39062
723.5,65.2935,0.325938,-2.3881
724,65.3456,0.321901,-2.38807
724.5,65.3954,0.323375,-2.38812
725,65.4462,0.329676,-2.38806
725.5,65.4969,0.326599,-2.38681
726,65.5487,0.33242,-2.38664
726.5,65.5963,0.332515,-2.388
727,65.6482,0.32898,-2.388
727.5,65.7001,0.333165,-2.39062
728,65.7503,0.307786,-2.39172
728.5,65.8012,0.29053,-2.3894
729,65.8523,0.275695,-2.38389
729.5,65.9037,0.267892,-2.38349
730,65.9543,0.265894,-2.38865
730.5,66.0046,0.261057,-2.39211
731,66.056,0.262127,-2.39092
731.5,66.1061,0.258202,-2.39205
732,66.1582,0.259115,-2.39204
732.5,66.208,0.267624,-2.39338
733,66.259,0.258589,-2.39338
733.5,66.3095,0.265153,-2.39339
734,66.3588,0.260579,-2.39143
734.5,66.4116,0.265291,-2.39289
735,66.4621,0.261448,-2.39417
735.5,66.5132,0.268082,-2.395
736,66.563,0.264986,-2.39412
736.5,66.6152,0.255057,-2.39226
737,66.6664,0.259768,-2.3923
737.5,66.7167,0.264753,-2.39468
738,66.7676,0.269571,-2.39401
738.5,66.819,0.265437,-2.39395
739,66.8693,0.26952,-2.39262
739.5,66.9205,0.265374,-2.39132
740,66.9706,0.266383,-2.3913