File: 01_Data/EPDM_SCBA_Face_Seal/STA/N2/10K_min/EPDM_SCBA_Face_Seal_STA_N2_10KData_240227_R1.csv
Temp./C,Time/min,DSC/(mW/mg),Mass loss/mg
60.0,0.0,0.734741,-0.00118905
60.5,0.0602156,0.75029,-0.00130651
61,0.115779,0.766906,-0.00252842
61.5,0.17351,0.766461,-0.00387454
62,0.226973,0.781823,-0.00273256
62.5,0.283013,0.779048,-0.00317485
63,0.338965,0.784921,-0.00280929
63.5,0.394382,0.789829,-0.00435587
64,0.448299,0.794089,-0.00362952
64.5,0.502229,0.797297,-0.00409006
65,0.556966,0.808449,-0.00363029
65.5,0.611027,0.80945,-0.00364144
66,0.665299,0.818492,-0.00243169
66.5,0.71869,0.826207,-0.00373397
67,0.770585,0.823787,-0.00360839
67.5,0.825829,0.833471,-0.00361779
68,0.879262,0.832616,-0.0036372
68.5,0.931572,0.834131,-0.00427004
69,0.985739,0.844181,-0.00362348
69.5,1.03822,0.847565,-0.00397185
70,1.0899,0.848308,-0.00363084
70.5,1.14453,0.849568,-0.00492883
71,1.1974,0.859366,-0.00500831
71.5,1.25037,0.85435,-0.005599
72,1.30198,0.855021,-0.00495063
72.5,1.35635,0.862854,-0.00491744
73,1.40631,0.866652,-0.00496142
73.5,1.46016,0.869201,-0.00394899
74,1.51122,0.876839,-0.00505248
74.5,1.56438,0.873554,-0.00507307
75,1.61652,0.879339,-0.00403941
75.5,1.66849,0.88434,-0.00514537
76,1.72123,0.882085,-0.00396252
76.5,1.77171,0.885936,-0.00395984
77,1.82464,0.888311,-0.0035551
77.5,1.87261,0.88806,-0.00389005
78,1.9266,0.891998,-0.00261206
78.5,1.97743,0.900228,-0.00296212
79,2.03012,0.900066,-0.00295022
79.5,2.08262,0.904083,-0.0039582
80,2.13301,0.905434,-0.00264889
80.5,2.18501,0.907933,-0.00330978
81,2.23588,0.907196,-0.00394622
81.5,2.28687,0.912423,-0.00260389
82,2.33786,0.922095,-0.00392649
82.5,2.38831,0.919503,-0.00395
83,2.43862,0.919141,-0.00395
83.5,2.49072,0.92296,-0.00395
84,2.54151,0.922454,-0.00394995
84.5,2.59217,0.927639,-0.00262528
85,2.64212,0.924529,-0.00396846
85.5,2.69532,0.925394,-0.00348732
86,2.74449,0.932506,-0.00333479
86.5,2.79291,0.944896,-0.00425297
87,2.84524,0.933023,-0.00462371
87.5,2.89626,0.93804,-0.00507806
88,2.945,0.937845,-0.00527994
88.5,2.99575,0.936181,-0.00529017
89,3.04624,0.934165,-0.00570678
89.5,3.09614,0.943299,-0.00526725
90,3.14552,0.943893,-0.00527889
90.5,3.19361,0.952959,-0.00489069
91,3.24543,0.947666,-0.00527021
91.5,3.29638,0.95036,-0.00527003
92,3.34623,0.946736,-0.00525045
92.5,3.39543,0.957403,-0.0039822
93,3.44396,0.958494,-0.00527816
93.5,3.49474,0.955269,-0.00527999
94,3.54245,0.952362,-0.00664484
94.5,3.59425,0.956523,-0.00667798
95,3.6425,0.961104,-0.00527991
95.5,3.69261,0.952645,-0.00545307
96,3.74159,0.950859,-0.00527019
96.5,3.79086,0.958555,-0.0052686
97,3.8412,0.949156,-0.00395793
97.5,3.88921,0.949288,-0.00396001
98,3.93783,0.953555,-0.00396007
98.5,3.98775,0.95729,-0.00388159
99,4.03666,0.959378,-0.00534097
99.5,4.08654,0.956989,-0.00396375
100,4.13539,0.945201,-0.00526905
100.5,4.18408,0.950425,-0.00528001
101,4.23427,0.951997,-0.00528
101.5,4.28189,0.944486,-0.00528
102,4.33153,0.946789,-0.00528
102.5,4.37937,0.940903,-0.00527997
103,4.42884,0.951978,-0.0053006
103.5,4.47438,0.948072,-0.00658827
104,4.52563,0.952072,-0.00660022
104.5,4.57477,0.950607,-0.00646452
105,4.62491,0.940916,-0.00528872
105.5,4.67237,0.952125,-0.00658856
106,4.72254,0.9504,-0.00659024
106.5,4.77012,0.957961,-0.00627306
107,4.8201,0.955166,-0.00527331
107.5,4.86779,0.956834,-0.00520581
108,4.91867,0.951667,-0.0066047
108.5,4.96607,0.94861,-0.00527619
109,5.01475,0.94923,-0.00527831
109.5,5.06344,0.958015,-0.00648948
110,5.11263,0.954854,-0.00528003
110.5,5.16063,0.955361,-0.00527924
111,5.21031,0.950722,-0.00430865
111.5,5.25823,0.95106,-0.00461567
112,5.30479,0.954042,-0.00429973
112.5,5.35663,0.962525,-0.00425209
113,5.40506,0.967124,-0.00526921
113.5,5.45334,0.96172,-0.00449463
114,5.502,0.963898,-0.00418733
114.5,5.5474,0.962977,-0.00662864
115,5.599,0.958289,-0.00658997
115.5,5.64806,0.959299,-0.00658999
116,5.69746,0.961928,-0.00659632
116.5,5.74458,0.956959,-0.0052603
117,5.79324,0.959699,-0.00657584
117.5,5.84224,0.970697,-0.00659011
118,5.8911,0.96535,-0.00659
118.5,5.94003,0.966591,-0.00659002
119,5.98701,0.962266,-0.00657412
119.5,6.035,0.968167,-0.00665422
120,6.08518,0.973841,-0.0065999
120.5,6.13346,0.96706,-0.006567
121,6.18173,0.971326,-0.00692744
121.5,6.22891,0.975056,-0.00746566
122,6.2778,0.967567,-0.00723013
122.5,6.32566,0.970699,-0.00593996
123,6.37448,0.976517,-0.0059394
123.5,6.4223,0.97524,-0.00526707
124,6.47242,0.977153,-0.00528093
124.5,6.51925,0.983998,-0.00561599
125,6.56826,0.981381,-0.00559275
125.5,6.61723,0.985135,-0.00591485
126,6.6647,0.975925,-0.00659259
126.5,6.71211,0.983515,-0.0065895
127,6.76159,0.985345,-0.00559798
127.5,6.81023,0.99303,-0.00559997
128,6.85711,0.989343,-0.00563632
128.5,6.90613,0.985568,-0.00525309
129,6.95344,0.98828,-0.00528154
129.5,7.00319,0.991377,-0.00528
130,7.0516,0.9946,-0.00528
130.5,7.09892,0.983501,-0.00528071
131,7.14604,0.989985,-0.00564391
131.5,7.19492,0.988255,-0.00670696
132,7.24393,0.987269,-0.00791027
132.5,7.29189,0.987624,-0.00791
133,7.33941,0.983408,-0.00790999
133.5,7.38738,0.986642,-0.00791249
134,7.43492,0.976927,-0.00926002
134.5,7.48372,0.986002,-0.00790798
135,7.53189,0.990377,-0.00790875
135.5,7.58,0.990722,-0.00721476
136,7.62789,0.991325,-0.00727833
136.5,7.67477,0.990078,-0.00593246
137,7.7257,0.983916,-0.007236
137.5,7.77223,0.987544,-0.00810719
138,7.82078,0.989537,-0.00922709
138.5,7.86797,0.990969,-0.00802475
139,7.91584,0.99352,-0.0079103
139.5,7.96427,1.00215,-0.00923479
140,8.01299,0.991482,-0.00922651
140.5,8.05964,0.991077,-0.00789396
141,8.10791,0.999119,-0.00790987
141.5,8.15544,0.997552,-0.00717452
142,8.2033,0.995367,-0.00658491
142.5,8.25179,0.991972,-0.00790941
143,8.29895,0.988781,-0.00810207
143.5,8.34688,0.994264,-0.00785933
144,8.39453,0.996355,-0.00790984
144.5,8.44364,0.996819,-0.00877897
145,8.49152,0.997036,-0.00954937
145.5,8.53939,0.998871,-0.00947478
146,8.58674,0.99594,-0.0102086
146.5,8.63599,1.00038,-0.01021
147,8.683,1.00198,-0.01021
147.5,8.73107,0.999716,-0.0102101
148,8.77897,0.99857,-0.00981112
148.5,8.82652,0.999234,-0.00889109
149,8.87421,0.99806,-0.00955791
149.5,8.92285,1.00246,-0.0102096
150,8.96965,1.00667,-0.01021
150.5,9.01728,1.00456,-0.0102087
151,9.06522,1.0095,-0.00894416
151.5,9.11351,1.01065,-0.00823743
152,9.16099,1.0116,-0.00824001
152.5,9.20889,1.00869,-0.00823996
153,9.25683,1.01317,-0.00864215
153.5,9.30359,1.0158,-0.00955973
154,9.35098,1.0107,-0.00956
154.5,9.39901,1.00773,-0.00956712
155,9.4472,1.01402,-0.008235
155.5,9.49427,1.0166,-0.00824001
156,9.54343,1.0142,-0.00824
156.5,9.59137,1.0186,-0.00823936
157,9.63874,1.01614,-0.00964362
157.5,9.68512,1.02328,-0.00825359
158,9.73331,1.0195,-0.00823984
158.5,9.7809,1.02877,-0.00818844
159,9.82817,1.0293,-0.00955251
159.5,9.8763,1.02571,-0.010882
160,9.92362,1.03043,-0.00956313
160.5,9.97264,1.03482,-0.00956005
161,10.0203,1.02647,-0.0095595
161.5,10.0682,1.02693,-0.009958
162,10.1154,1.03268,-0.0109062
162.5,10.163,1.03885,-0.0095547
163,10.2101,1.03667,-0.00956154
163.5,10.259,1.034,-0.010855
164,10.3058,1.03304,-0.00990887
164.5,10.3536,1.03688,-0.00987997
165,10.4004,1.03522,-0.00987939
165.5,10.4486,1.03947,-0.00954823
166,10.4946,1.04386,-0.00922065
166.5,10.546,1.03857,-0.00922002
167,10.5921,1.03865,-0.0100235
167.5,10.6398,1.04215,-0.0105399
168,10.6874,1.03857,-0.01054
168.5,10.7356,1.043,-0.0105386
169,10.7813,1.04281,-0.00961842
169.5,10.8302,1.0391,-0.00923007
170,10.8784,1.0436,-0.00918577
170.5,10.9265,1.04528,-0.0115198
171,10.9731,1.04738,-0.01153
171.5,11.0205,1.04486,-0.01153
172,11.0673,1.04164,-0.01153
172.5,11.1156,1.05081,-0.01153
173,11.1639,1.03901,-0.01153
173.5,11.2107,1.0437,-0.0115309
174,11.2582,1.04331,-0.0125487
174.5,11.3062,1.04384,-0.012542
175,11.3539,1.0503,-0.011528
175.5,11.4016,1.05375,-0.01154
176,11.4499,1.04475,-0.0115072
176.5,11.4973,1.05436,-0.012854
177,11.5444,1.0511,-0.01285
177.5,11.5919,1.04589,-0.01285
178,11.6403,1.04505,-0.0128448
178.5,11.6866,1.04395,-0.0141652
179,11.7348,1.05063,-0.01416
179.5,11.7822,1.04366,-0.0141599
180,11.8292,1.04541,-0.0134119
180.5,11.8777,1.0488,-0.0131796
181,11.9247,1.05011,-0.0131796
181.5,11.9724,1.04672,-0.0128375
182,12.0199,1.04654,-0.0128499
182.5,12.067,1.04654,-0.0128445
183,12.1147,1.04814,-0.0148724
183.5,12.1626,1.05285,-0.0154903
184,12.2097,1.04737,-0.01548
184.5,12.2564,1.04772,-0.0154896
185,12.305,1.05106,-0.0158557
185.5,12.3525,1.05438,-0.0154899
186,12.3993,1.05385,-0.01549
186.5,12.4471,1.05231,-0.0154884
187,12.4948,1.0479,-0.0145582
187.5,12.5403,1.05847,-0.0141702
188,12.5894,1.06087,-0.01417
188.5,12.6379,1.05479,-0.0141758
189,12.6845,1.05376,-0.0148207
189.5,12.7309,1.04767,-0.01483
190,12.7793,1.05537,-0.01519
190.5,12.8267,1.05778,-0.0151599
191,12.8724,1.0606,-0.0151618
191.5,12.9222,1.06177,-0.0161738
192,12.9688,1.05736,-0.0161473
192.5,13.0154,1.05241,-0.0168382
193,13.0646,1.05729,-0.0168109
193.5,13.111,1.0604,-0.0178078
194,13.1596,1.05835,-0.0188996
194.5,13.2067,1.05806,-0.0180805
195,13.2534,1.05856,-0.0177998
195.5,13.3024,1.05825,-0.0178099
196,13.3499,1.05783,-0.019109
196.5,13.3972,1.06205,-0.01911
197,13.4441,1.05483,-0.01911
197.5,13.4923,1.06121,-0.01911
198,13.5405,1.06098,-0.0191099
198.5,13.5873,1.05896,-0.019198
199,13.6343,1.06355,-0.0197698
199.5,13.6817,1.06049,-0.01977
200,13.7297,1.05643,-0.0197438
200.5,13.7744,1.05948,-0.0200895
201,13.8242,1.05283,-0.02009
201.5,13.8706,1.05835,-0.02009
202,13.919,1.06341,-0.0201017
202.5,13.9664,1.06064,-0.0213964
203,14.0121,1.05896,-0.02141
203.5,14.0608,1.06203,-0.0213922
204,14.1085,1.06289,-0.0204157
204.5,14.1568,1.06966,-0.0211559
205,14.204,1.07022,-0.0210787
205.5,14.2512,1.06359,-0.023612
206,14.2992,1.06703,-0.0237201
206.5,14.347,1.07042,-0.02372
207,14.3943,1.06324,-0.02372
207.5,14.443,1.06663,-0.02372
208,14.4888,1.07076,-0.02372
208.5,14.5368,1.07557,-0.02372
209,14.5837,1.07165,-0.02372
209.5,14.6324,1.05984,-0.02372
210,14.6803,1.07453,-0.0237198
210.5,14.7262,1.06082,-0.0239888
211,14.774,1.06575,-0.025707
211.5,14.8212,1.06676,-0.0256914
212,14.87,1.06551,-0.0250534
212.5,14.9163,1.06594,-0.0263377
213,14.9642,1.06834,-0.0276801
213.5,15.0097,1.06098,-0.0275729
214,15.0601,1.0674,-0.0299865
214.5,15.1065,1.06651,-0.0299699
215,15.155,1.06895,-0.02997
215.5,15.2008,1.07834,-0.02997
216,15.2485,1.06955,-0.02997
216.5,15.2965,1.07401,-0.0299766
217,15.345,1.07221,-0.0286525
217.5,15.3915,1.07748,-0.0286481
218,15.4383,1.08294,-0.0299705
218.5,15.4867,1.0827,-0.0302926
219,15.534,1.08071,-0.0303
219.5,15.581,1.09118,-0.0303
220,15.6294,1.08586,-0.0302986
220.5,15.6767,1.08408,-0.0316945
221,15.7243,1.08062,-0.0316115
221.5,15.7714,1.08335,-0.0322793
222,15.8192,1.08537,-0.03228
222.5,15.8668,1.09404,-0.03228
223,15.9127,1.08331,-0.03228
223.5,15.9596,1.08695,-0.032291
224,16.006,1.09095,-0.0338924
224.5,16.0549,1.08616,-0.0342602
225,16.1032,1.09012,-0.03426
225.5,16.1512,1.09697,-0.0342569
226,16.1986,1.08547,-0.0357638
226.5,16.2461,1.09248,-0.0363741
227,16.2947,1.08889,-0.0365723
227.5,16.3379,1.09087,-0.0379368
228,16.3868,1.09015,-0.0378406
228.5,16.4341,1.0845,-0.0392052
229,16.4825,1.08342,-0.0392
229.5,16.5314,1.09308,-0.0391764
230,16.5783,1.08657,-0.0405267
230.5,16.6256,1.08641,-0.0411247
231,16.6714,1.08709,-0.0418404
231.5,16.7213,1.09248,-0.0418439
232,16.7681,1.08892,-0.0431385
232.5,16.8159,1.09576,-0.04315
233,16.8629,1.09348,-0.04315
233.5,16.9112,1.09019,-0.0431459
234,16.9585,1.09105,-0.0444741
234.5,17.0055,1.0996,-0.0444533
235,17.0525,1.09746,-0.0461126
235.5,17.0985,1.09447,-0.0474325
236,17.1488,1.1056,-0.0474965
236.5,17.196,1.09507,-0.0467812
237,17.243,1.10074,-0.04678
237.5,17.2893,1.10104,-0.0467794
238,17.3373,1.09624,-0.047317
238.5,17.3861,1.10271,-0.0481121
239,17.4323,1.09967,-0.0494072
239.5,17.4808,1.10544,-0.0494058
240,17.5283,1.10463,-0.050751
240.5,17.5757,1.10435,-0.0520242
241,17.6237,1.10632,-0.0520571
241.5,17.6699,1.10209,-0.0515351
242,17.717,1.1047,-0.0524162
242.5,17.7649,1.10187,-0.0546808
243,17.8129,1.10234,-0.05467
243.5,17.8594,1.09928,-0.05467
244,17.9078,1.10929,-0.0547424
244.5,17.9558,1.10598,-0.0559305
245,18.0027,1.11468,-0.0563284
245.5,18.0481,1.09966,-0.0564987
246,18.0969,1.10261,-0.057523
246.5,18.1457,1.10146,-0.0589294
247,18.1923,1.09964,-0.060265
247.5,18.2399,1.09402,-0.0615027
248,18.2875,1.09422,-0.0615846
248.5,18.3345,1.0998,-0.0629197
249,18.3818,1.09416,-0.0642272
249.5,18.4292,1.09764,-0.0642301
250,18.4773,1.10823,-0.0642255
250.5,18.5254,1.09685,-0.0655986
251,18.5719,1.10204,-0.0652246
251.5,18.62,1.09954,-0.0658663
252,18.6661,1.09665,-0.068597
252.5,18.7153,1.09042,-0.06851
253,18.7629,1.09465,-0.0684946
253.5,18.8092,1.09681,-0.0698545
254,18.8574,1.09426,-0.0711538
254.5,18.9047,1.09119,-0.0738321
255,18.9522,1.09084,-0.0750964
255.5,18.9989,1.08918,-0.0764726
256,19.0456,1.08906,-0.0778717
256.5,19.0933,1.10083,-0.0792727
257,19.1418,1.09384,-0.0792701
257.5,19.1886,1.09477,-0.0804409
258,19.2367,1.09132,-0.0811258
258.5,19.2838,1.09743,-0.0812401
259,19.3312,1.09749,-0.0812408
259.5,19.3793,1.09731,-0.0825501
260,19.4262,1.09632,-0.083807
260.5,19.4738,1.09532,-0.0852
261,19.5219,1.09867,-0.0858623
261.5,19.5684,1.10049,-0.0859766
262,19.6168,1.09659,-0.087163
262.5,19.6636,1.10392,-0.0884953
263,19.7113,1.0979,-0.0894314
263.5,19.7591,1.10429,-0.0910886
264,19.8078,1.09988,-0.0926602
264.5,19.8547,1.10986,-0.0937326
265,19.9022,1.09821,-0.09387
265.5,19.9487,1.0956,-0.09387
266,19.9964,1.09893,-0.0938711
266.5,20.0445,1.10179,-0.0951581
267,20.0918,1.09485,-0.0951913
267.5,20.1387,1.0979,-0.0965111
268,20.1861,1.09951,-0.0978166
268.5,20.2349,1.09733,-0.0991239
269,20.2815,1.10635,-0.100096
269.5,20.329,1.10001,-0.10174
270,20.3773,1.1009,-0.104707
270.5,20.4238,1.09922,-0.105946
271,20.4711,1.09928,-0.106534
271.5,20.5184,1.10458,-0.107637
272,20.566,1.09734,-0.107618
272.5,20.6127,1.09725,-0.10857
273,20.6616,1.10203,-0.1099
273.5,20.7103,1.10871,-0.111212
274,20.7576,1.10668,-0.1113
274.5,20.8055,1.10175,-0.113848
275,20.8518,1.1093,-0.115162
275.5,20.9002,1.09754,-0.115127
276,20.9472,1.1048,-0.116548
276.5,20.9942,1.10584,-0.116592
277,21.0426,1.11015,-0.120814
277.5,21.09,1.11702,-0.122938
278,21.137,1.11191,-0.124058
278.5,21.1843,1.10748,-0.124219
279,21.2323,1.10778,-0.126029
279.5,21.2809,1.11626,-0.127352
280,21.3276,1.10793,-0.12896
280.5,21.3751,1.11901,-0.130527
281,21.4228,1.11564,-0.132275
281.5,21.4706,1.11266,-0.133622
282,21.5189,1.11027,-0.135482
282.5,21.5663,1.11705,-0.136729
283,21.6131,1.11812,-0.139286
283.5,21.6609,1.12284,-0.140746
284,21.7097,1.12237,-0.14225
284.5,21.7566,1.12338,-0.144315
285,21.8048,1.13151,-0.146267
285.5,21.8525,1.12635,-0.147549
286,21.8984,1.12278,-0.148998
286.5,21.9469,1.12394,-0.150234
287,21.9948,1.11587,-0.152081
287.5,22.0423,1.12779,-0.1546
288,22.0906,1.11697,-0.155889
288.5,22.1391,1.11716,-0.157236
289,22.1863,1.12366,-0.157427
289.5,22.2345,1.12599,-0.161183
290,22.2823,1.12249,-0.162912
290.5,22.3295,1.12121,-0.164242
291,22.3759,1.12276,-0.165547
291.5,22.4241,1.12702,-0.166396
292,22.4713,1.13602,-0.168174
292.5,22.52,1.13195,-0.169546
293,22.5671,1.13347,-0.170911
293.5,22.6154,1.13822,-0.17227
294,22.6625,1.1405,-0.175336
294.5,22.7111,1.13419,-0.177988
295,22.759,1.13217,-0.179703
295.5,22.8065,1.13757,-0.180263
296,22.8545,1.13868,-0.182329
296.5,22.9023,1.13576,-0.183483
297,22.9505,1.13687,-0.185243
297.5,22.9966,1.13851,-0.186733
298,23.0451,1.14306,-0.189689
298.5,23.0931,1.13805,-0.19189
299,23.1411,1.13952,-0.195125
299.5,23.1893,1.14182,-0.196849
300,23.2364,1.14364,-0.199387
300.5,23.2826,1.14117,-0.201234
301,23.3318,1.13623,-0.204299
301.5,23.3789,1.13697,-0.205588
302,23.4272,1.14565,-0.208287
302.5,23.4751,1.13877,-0.209848
303,23.5228,1.14176,-0.210994
303.5,23.5699,1.13983,-0.213332
304,23.6185,1.14884,-0.215603
304.5,23.6659,1.1418,-0.217528
305,23.7142,1.14572,-0.219658
305.5,23.7605,1.14881,-0.223077
306,23.8082,1.1494,-0.225072
306.5,23.8572,1.14683,-0.227536
307,23.9039,1.13869,-0.231252
307.5,23.9518,1.14865,-0.233737
308,23.9982,1.15333,-0.235599
308.5,24.0475,1.15055,-0.238582
309,24.0945,1.1552,-0.241091
309.5,24.1434,1.15341,-0.244019
310,24.1909,1.14813,-0.247472
310.5,24.2396,1.15974,-0.249908
311,24.2869,1.14985,-0.252421
311.5,24.3339,1.14714,-0.253847
312,24.3837,1.14979,-0.255753
312.5,24.4304,1.15889,-0.258211
313,24.4785,1.15659,-0.261578
313.5,24.5263,1.15339,-0.263325
314,24.5734,1.15363,-0.265775
314.5,24.6229,1.15947,-0.267276
315,24.6677,1.1623,-0.269611
315.5,24.7158,1.15911,-0.273717
316,24.7655,1.15978,-0.278635
316.5,24.813,1.16144,-0.281745
317,24.8602,1.15875,-0.28491
317.5,24.9092,1.15813,-0.286111
318,24.9565,1.16325,-0.28849
318.5,25.0049,1.165,-0.290053
319,25.0525,1.1655,-0.294478
319.5,25.1,1.16315,-0.297295
320,25.1486,1.16134,-0.301156
320.5,25.1961,1.16045,-0.303128
321,25.244,1.16685,-0.307077
321.5,25.291,1.16606,-0.31001
322,25.3391,1.16087,-0.31358
322.5,25.3872,1.16555,-0.316855
323,25.4358,1.1659,-0.320115
323.5,25.4825,1.16572,-0.323659
324,25.5317,1.16655,-0.326933
324.5,25.5794,1.16858,-0.330285
325,25.6274,1.16401,-0.333699
325.5,25.6752,1.16311,-0.337104
326,25.7209,1.16987,-0.340684
326.5,25.7708,1.16736,-0.344411
327,25.819,1.17136,-0.347691
327.5,25.867,1.17207,-0.350848
328,25.9149,1.17523,-0.3556
328.5,25.9636,1.16988,-0.359385
329,26.0101,1.17115,-0.362803
329.5,26.0583,1.17035,-0.365917
330,26.1053,1.16661,-0.369826
330.5,26.1534,1.17378,-0.373494
331,26.2018,1.17112,-0.377316
331.5,26.2511,1.17077,-0.383372
332,26.2989,1.17148,-0.387254
332.5,26.3463,1.17248,-0.390307
333,26.3945,1.17154,-0.393519
333.5,26.4417,1.17105,-0.396751
334,26.4903,1.16361,-0.40043
334.5,26.538,1.17108,-0.406193
335,26.5863,1.1772,-0.411201
335.5,26.6345,1.17776,-0.416807
336,26.6823,1.17616,-0.418824
336.5,26.7301,1.17363,-0.422785
337,26.7786,1.17296,-0.428456
337.5,26.8264,1.1762,-0.433592
338,26.8734,1.1759,-0.438209
338.5,26.9216,1.17265,-0.44187
339,26.969,1.17605,-0.445553
339.5,27.0171,1.17403,-0.44843
340,27.0655,1.16987,-0.452381
340.5,27.1146,1.17513,-0.456364
341,27.1619,1.17517,-0.461557
341.5,27.2094,1.17656,-0.467207
342,27.2583,1.17911,-0.472108
342.5,27.3055,1.17439,-0.476831
343,27.3529,1.17086,-0.481453
343.5,27.4014,1.16772,-0.486511
344,27.4504,1.1658,-0.491261
344.5,27.4988,1.1627,-0.496602
345,27.5465,1.16438,-0.501302
345.5,27.5942,1.16418,-0.505243
346,27.6422,1.1662,-0.509312
346.5,27.691,1.1671,-0.513951
347,27.7366,1.16862,-0.518774
347.5,27.7863,1.16217,-0.523253
348,27.8348,1.16333,-0.528462
348.5,27.8833,1.16505,-0.53408
349,27.9315,1.15846,-0.536976
349.5,27.9787,1.1617,-0.542646
350,28.0274,1.17619,-0.548241
350.5,28.0761,1.16375,-0.552753
351,28.1244,1.16333,-0.55966
351.5,28.1717,1.16112,-0.563727
352,28.22,1.15953,-0.569031
352.5,28.2684,1.1559,-0.572901
353,28.316,1.15674,-0.57781
353.5,28.3648,1.15625,-0.582944
354,28.4126,1.15818,-0.587963
354.5,28.4608,1.15379,-0.592412
355,28.5081,1.14876,-0.596756
355.5,28.5567,1.14817,-0.603249
356,28.6053,1.14432,-0.609139
356.5,28.6526,1.13838,-0.613692
357,28.7018,1.14033,-0.619254
357.5,28.75,1.14495,-0.624675
358,28.7983,1.14376,-0.629063
358.5,28.8467,1.13567,-0.634441
359,28.8932,1.13865,-0.638631
359.5,28.9423,1.1363,-0.645127
360,28.9918,1.13283,-0.649249
360.5,29.0396,1.12448,-0.655417
361,29.0881,1.12125,-0.659892
361.5,29.1363,1.11601,-0.6649
362,29.1849,1.11804,-0.671028
362.5,29.232,1.12046,-0.67661
363,29.2812,1.11966,-0.681367
363.5,29.3293,1.11048,-0.686501
364,29.3773,1.11416,-0.6912
364.5,29.4254,1.11034,-0.697139
365,29.4741,1.10911,-0.703254
365.5,29.5212,1.10372,-0.708832
366,29.5695,1.10392,-0.714135
366.5,29.6183,1.10044,-0.718608
367,29.6667,1.09978,-0.72486
367.5,29.7155,1.09491,-0.730064
368,29.7638,1.09347,-0.735805
368.5,29.8119,1.09528,-0.74126
369,29.8584,1.08691,-0.745859
369.5,29.9071,1.08856,-0.750371
370,29.955,1.08649,-0.7557
370.5,30.005,1.07908,-0.761592
371,30.0539,1.06967,-0.767961
371.5,30.1013,1.07731,-0.773603
372,30.1501,1.07512,-0.779397
372.5,30.1969,1.0755,-0.785485
373,30.2462,1.07505,-0.789882
373.5,30.2951,1.07374,-0.794796
374,30.3428,1.06931,-0.80062
374.5,30.3903,1.06071,-0.805891
375,30.4402,1.06559,-0.811828
375.5,30.4887,1.05369,-0.818484
376,30.5369,1.04707,-0.824434
376.5,30.5863,1.03812,-0.829575
377,30.6329,1.03903,-0.83467
377.5,30.6813,1.03942,-0.838501
378,30.7311,1.03088,-0.844049
378.5,30.7797,1.02352,-0.849011
379,30.8271,1.01842,-0.853213
379.5,30.8758,1.02431,-0.857423
380,30.9243,1.02076,-0.862844
380.5,30.9722,1.01537,-0.868107
381,31.0215,1.01763,-0.873725
381.5,31.0703,1.00799,-0.877361
382,31.118,1.00618,-0.882351
382.5,31.1647,1.00342,-0.887464
383,31.2146,1.00748,-0.892196
383.5,31.2632,1.00582,-0.896229
384,31.31,1.00005,-0.901337
384.5,31.36,0.994578,-0.905628
385,31.4081,0.993503,-0.910039
385.5,31.4576,0.994226,-0.914532
386,31.5054,0.985408,-0.918837
386.5,31.5544,0.978789,-0.922913
387,31.6028,0.977485,-0.926883
387.5,31.6513,0.974359,-0.931131
388,31.6975,0.974561,-0.935327
388.5,31.7461,0.972568,-0.941057
389,31.7963,0.961401,-0.945886
389.5,31.8445,0.961183,-0.949626
390,31.8927,0.96053,-0.954226
390.5,31.9409,0.950165,-0.957429
391,31.9898,0.95037,-0.961616
391.5,32.0389,0.95265,-0.966518
392,32.0859,0.943005,-0.970299
392.5,32.1342,0.937172,-0.973838
393,32.1827,0.933142,-0.978146
393.5,32.2319,0.928723,-0.98213
394,32.2801,0.929423,-0.985065
394.5,32.3287,0.926546,-0.988363
395,32.3778,0.918487,-0.993918
395.5,32.4255,0.92093,-0.99793
396,32.4737,0.916126,-1.00212
396.5,32.5223,0.918502,-1.00543
397,32.5712,0.910239,-1.01027
397.5,32.6202,0.918847,-1.01378
398,32.6683,0.909024,-1.01859
398.5,32.7168,0.905965,-1.02335
399,32.7654,0.902556,-1.02542
399.5,32.8137,0.902619,-1.02888
400,32.8629,0.896881,-1.03239
400.5,32.911,0.896652,-1.03854
401,32.959,0.891788,-1.04466
401.5,33.0078,0.881496,-1.04975
402,33.057,0.892471,-1.05252
402.5,33.1045,0.889256,-1.0546
403,33.1538,0.879836,-1.05693
403.5,33.2029,0.888185,-1.06033
404,33.2514,0.888698,-1.06398
404.5,33.2997,0.881683,-1.06741
405,33.3475,0.89011,-1.06913
405.5,33.3963,0.875591,-1.07263
406,33.4448,0.878075,-1.07632
406.5,33.4918,0.881252,-1.07927
407,33.543,0.874542,-1.08392
407.5,33.5913,0.880228,-1.0857
408,33.6397,0.878317,-1.08979
408.5,33.689,0.871738,-1.09446
409,33.7367,0.872047,-1.09934
409.5,33.7859,0.876338,-1.10326
410,33.8333,0.869077,-1.10769
410.5,33.8831,0.865245,-1.11069
411,33.931,0.867066,-1.11412
411.5,33.9793,0.871822,-1.11714
412,34.0299,0.871988,-1.12219
412.5,34.0779,0.86953,-1.12569
413,34.127,0.874437,-1.12879
413.5,34.1746,0.873005,-1.13102
414,34.2238,0.873942,-1.13414
414.5,34.2732,0.874322,-1.13671
415,34.3219,0.882634,-1.14021
415.5,34.3703,0.877226,-1.14302
416,34.4189,0.887959,-1.14578
416.5,34.4674,0.888327,-1.14886
417,34.5164,0.885967,-1.1522
417.5,34.5642,0.891156,-1.15545
418,34.6122,0.882942,-1.1589
418.5,34.6624,0.887894,-1.16233
419,34.7109,0.886306,-1.16556
419.5,34.7595,0.894847,-1.16949
420,34.8085,0.888105,-1.17265
420.5,34.8571,0.891705,-1.17475
421,34.9053,0.894428,-1.17842
421.5,34.9545,0.897089,-1.18167
422,35.0026,0.900529,-1.18519
422.5,35.052,0.903224,-1.1905
423,35.1013,0.906129,-1.19381
423.5,35.1501,0.911761,-1.1971
424,35.1991,0.910286,-1.19967
424.5,35.2481,0.913777,-1.20172
425,35.2968,0.918295,-1.20438
425.5,35.3449,0.929524,-1.20753
426,35.3953,0.933134,-1.21038
426.5,35.4431,0.931889,-1.2122
427,35.4921,0.93589,-1.21565
427.5,35.5416,0.948113,-1.219
428,35.5895,0.952572,-1.2222
428.5,35.6383,0.953656,-1.22541
429,35.6868,0.956022,-1.23066
429.5,35.7358,0.959991,-1.23458
430,35.7851,0.964068,-1.23729
430.5,35.834,0.97749,-1.23932
431,35.8826,0.975028,-1.24198
431.5,35.9319,0.980927,-1.24527
432,35.9813,0.984787,-1.24919
432.5,36.0299,0.997807,-1.25287
433,36.0787,1.00307,-1.25653
433.5,36.128,1.01016,-1.26104
434,36.1772,1.01759,-1.26535
434.5,36.2263,1.02193,-1.26923
435,36.2751,1.02758,-1.27394
435.5,36.3234,1.04051,-1.27805
436,36.3739,1.04361,-1.2838
436.5,36.4221,1.0553,-1.28866
437,36.4698,1.06874,-1.2921
437.5,36.5199,1.07781,-1.29697
438,36.569,1.08693,-1.30128
438.5,36.6176,1.10418,-1.30587
439,36.6665,1.10413,-1.31058
439.5,36.7161,1.11653,-1.31485
440,36.7657,1.12698,-1.31895
440.5,36.8141,1.14011,-1.32259
441,36.8639,1.14749,-1.32788
441.5,36.9121,1.16663,-1.33258
442,36.9616,1.17429,-1.33756
442.5,37.0097,1.18957,-1.34261
443,37.0578,1.20081,-1.3469
443.5,37.1081,1.21216,-1.35275
444,37.158,1.22752,-1.35925
444.5,37.2062,1.23871,-1.36757
445,37.2548,1.24804,-1.37326
445.5,37.3044,1.26521,-1.3792
446,37.3531,1.274,-1.38706
446.5,37.4008,1.28972,-1.39297
447,37.4532,1.30638,-1.40019
447.5,37.5008,1.3223,-1.40753
448,37.5497,1.33769,-1.41575
448.5,37.5987,1.36164,-1.42336
449,37.6493,1.37775,-1.43091
449.5,37.698,1.39457,-1.43985
450,37.7474,1.41432,-1.45036
450.5,37.7962,1.4187,-1.45841
451,37.8463,1.43969,-1.46518
451.5,37.8939,1.46131,-1.47263
452,37.944,1.47237,-1.48294
452.5,37.9935,1.48604,-1.4923
453,38.0427,1.50654,-1.5025
453.5,38.0921,1.52131,-1.5123
454,38.1413,1.53532,-1.52473
454.5,38.1905,1.55437,-1.5364
455,38.2391,1.57056,-1.54733
455.5,38.289,1.58965,-1.55782
456,38.3373,1.60938,-1.56932
456.5,38.3877,1.63325,-1.58155
457,38.4377,1.65084,-1.59255
457.5,38.4862,1.65852,-1.60558
458,38.5353,1.67685,-1.61945
458.5,38.5855,1.69434,-1.63182
459,38.6338,1.71082,-1.64417
459.5,38.6834,1.72757,-1.65823
460,38.7335,1.74774,-1.67143
460.5,38.7809,1.76537,-1.68433
461,38.8308,1.7821,-1.6984
461.5,38.8817,1.80001,-1.71433
462,38.9308,1.8185,-1.7278
462.5,38.98,1.82259,-1.74196
463,39.0294,1.84058,-1.7564
463.5,39.079,1.85836,-1.77137
464,39.1289,1.86343,-1.78965
464.5,39.1781,1.88135,-1.80716
465,39.2282,1.88593,-1.82513
465.5,39.2769,1.89614,-1.84284
466,39.3257,1.89806,-1.86006
466.5,39.3734,1.91201,-1.87986
467,39.4243,1.90573,-1.89941
467.5,39.474,1.90564,-1.91707
468,39.5219,1.90507,-1.93493
468.5,39.5741,1.9196,-1.95557
469,39.6228,1.92063,-1.97327
469.5,39.6722,1.91876,-1.99136
470,39.7208,1.91462,-2.01221
470.5,39.7686,1.91106,-2.03092
471,39.8171,1.90926,-2.05017
471.5,39.8683,1.89836,-2.07225
472,39.9186,1.88857,-2.09122
472.5,39.965,1.88505,-2.10755
473,40.0167,1.87162,-2.12882
473.5,40.0658,1.84883,-2.15071
474,40.1139,1.83517,-2.16967
474.5,40.1638,1.81443,-2.18898
475,40.2128,1.79973,-2.20985
475.5,40.2616,1.77642,-2.22843
476,40.3095,1.74968,-2.24725
476.5,40.3589,1.71539,-2.26827
477,40.4089,1.68233,-2.28893
477.5,40.4576,1.65593,-2.30748
478,40.5061,1.61922,-2.32675
478.5,40.5544,1.5811,-2.34496
479,40.6028,1.54916,-2.36357
479.5,40.6519,1.50157,-2.38541
480,40.7005,1.45777,-2.40428
480.5,40.7489,1.39991,-2.42171
481,40.7978,1.36967,-2.43994
481.5,40.8463,1.30455,-2.45872
482,40.895,1.25481,-2.47631
482.5,40.9427,1.20757,-2.4914
483,40.9913,1.14313,-2.50566
483.5,41.0399,1.10174,-2.52078
484,41.0885,1.03041,-2.53567
484.5,41.1374,0.978966,-2.54995
485,41.1857,0.91495,-2.56317
485.5,41.2346,0.858793,-2.57859
486,41.2831,0.788299,-2.59133
486.5,41.3307,0.723465,-2.60395
487,41.3791,0.667318,-2.61544
487.5,41.4285,0.59887,-2.62453
488,41.4769,0.53257,-2.63377
488.5,41.5257,0.47351,-2.64085
489,41.5731,0.409194,-2.64796
489.5,41.6214,0.354945,-2.6549
490,41.6713,0.307539,-2.66193
490.5,41.7175,0.26027,-2.66908
491,41.7687,0.218272,-2.6737
491.5,41.8165,0.181671,-2.67587
492,41.8651,0.148957,-2.67842
492.5,41.9152,0.128134,-2.68138
493,41.9632,0.0935347,-2.68331
493.5,42.012,0.0588572,-2.68623
494,42.061,0.0460072,-2.68892
494.5,42.1095,0.0214042,-2.68914
495,42.1587,-0.0131865,-2.69018
495.5,42.2082,-0.0358775,-2.69156
496,42.2564,-0.0640448,-2.69259
496.5,42.3054,-0.0868385,-2.69417
497,42.3539,-0.104876,-2.69418
497.5,42.4037,-0.123024,-2.69286
498,42.4523,-0.139006,-2.69356
498.5,42.4994,-0.142809,-2.69419
499,42.5509,-0.149359,-2.69419
499.5,42.5992,-0.157943,-2.69538
500,42.6488,-0.160871,-2.69549
500.5,42.6987,-0.158746,-2.69418
501,42.747,-0.167433,-2.69353
501.5,42.7959,-0.165815,-2.69391
502,42.8461,-0.173924,-2.69489
502.5,42.895,-0.162561,-2.69617
503,42.9445,-0.168528,-2.69617
503.5,42.9944,-0.16991,-2.69617
504,43.0432,-0.174736,-2.69738
504.5,43.0927,-0.17317,-2.69903
505,43.1417,-0.172665,-2.69898
505.5,43.191,-0.174244,-2.69803
506,43.2399,-0.171946,-2.69799
506.5,43.2896,-0.174633,-2.6977
507,43.3385,-0.172904,-2.6977
507.5,43.3872,-0.182724,-2.6977
508,43.437,-0.197005,-2.69865
508.5,43.4869,-0.201301,-2.69902
509,43.5366,-0.226747,-2.7001
509.5,43.5854,-0.245567,-2.69901
510,43.6358,-0.260494,-2.70035
510.5,43.6848,-0.278332,-2.70066
511,43.7346,-0.297489,-2.69957
511.5,43.7832,-0.311489,-2.69929
512,43.8323,-0.316346,-2.69902
512.5,43.8822,-0.330373,-2.69902
513,43.9325,-0.343181,-2.69902
513.5,43.9814,-0.354943,-2.69902
514,44.0319,-0.363974,-2.69902
514.5,44.0794,-0.369526,-2.69903
515,44.131,-0.373585,-2.69935
515.5,44.1795,-0.377526,-2.69935
516,44.2284,-0.384113,-2.69935
516.5,44.2784,-0.391826,-2.6995
517,44.328,-0.39628,-2.70034
517.5,44.378,-0.404522,-2.70034
518,44.4281,-0.411854,-2.70034
518.5,44.477,-0.411184,-2.70122
519,44.5263,-0.422432,-2.70163
519.5,44.5754,-0.420883,-2.70034
520,44.6237,-0.425366,-2.69901
520.5,44.6748,-0.435378,-2.69759
521,44.7248,-0.434785,-2.6977
521.5,44.7735,-0.4427,-2.69778
522,44.8222,-0.441453,-2.69993
522.5,44.8722,-0.446847,-2.70001
523,44.9209,-0.448689,-2.69982
523.5,44.9717,-0.453594,-2.69902
524,45.022,-0.45504,-2.70089
524.5,45.0702,-0.457154,-2.70231
525,45.1203,-0.461929,-2.70231
525.5,45.1695,-0.464026,-2.70228
526,45.2187,-0.468145,-2.7019
526.5,45.2694,-0.46719,-2.70166
527,45.3185,-0.467269,-2.70166
527.5,45.3679,-0.473553,-2.70036
528,45.4174,-0.470963,-2.70034
528.5,45.4681,-0.471571,-2.70034
529,45.5159,-0.46845,-2.70036
529.5,45.5669,-0.463551,-2.70165
530,45.6163,-0.470051,-2.70166
530.5,45.6663,-0.472462,-2.70166
531,45.7163,-0.480429,-2.70174
531.5,45.764,-0.469672,-2.70034
532,45.8148,-0.469357,-2.70027
532.5,45.8646,-0.469233,-2.70132
533,45.9136,-0.463958,-2.70132
533.5,45.9644,-0.472425,-2.70132
534,46.0138,-0.472917,-2.70132
534.5,46.0633,-0.470995,-2.70132
535,46.1126,-0.468487,-2.70132
535.5,46.1627,-0.472322,-2.70132
536,46.2127,-0.464274,-2.7013
536.5,46.2626,-0.471592,-2.70001
537,46.3125,-0.470162,-2.7
537.5,46.3632,-0.469721,-2.7
538,46.4117,-0.469304,-2.7
538.5,46.462,-0.464063,-2.69885
539,46.5113,-0.468691,-2.69968
539.5,46.562,-0.468033,-2.69968
540,46.6112,-0.470667,-2.69968
540.5,46.6616,-0.459842,-2.69829
541,46.7116,-0.471367,-2.69836
541.5,46.7607,-0.470469,-2.69968
542,46.8102,-0.472485,-2.69968
542.5,46.8594,-0.478291,-2.69836
543,46.9102,-0.483679,-2.69836
543.5,46.9594,-0.472242,-2.69839
544,47.0087,-0.477378,-2.69967
544.5,47.0591,-0.475598,-2.69967
545,47.1072,-0.484718,-2.69967
545.5,47.1578,-0.477992,-2.69967
546,47.2079,-0.480707,-2.69967
546.5,47.257,-0.477996,-2.69967
547,47.3069,-0.476044,-2.69967
547.5,47.3569,-0.482697,-2.69967
548,47.4069,-0.477797,-2.6996
548.5,47.4567,-0.474974,-2.69836
549,47.5064,-0.478996,-2.69838
549.5,47.5561,-0.479603,-2.70027
550,47.6052,-0.481235,-2.70066
550.5,47.6546,-0.479756,-2.70066
551,47.7045,-0.47624,-2.70066
551.5,47.7551,-0.481282,-2.70066
552,47.8037,-0.483886,-2.70196
552.5,47.854,-0.484961,-2.70198
553,47.9033,-0.486211,-2.69959
553.5,47.9531,-0.482524,-2.69968
554,48.002,-0.486182,-2.69968
554.5,48.0514,-0.484485,-2.7008
555,48.1017,-0.487524,-2.70099
555.5,48.1512,-0.482965,-2.70099
556,48.2009,-0.486576,-2.70231
556.5,48.2498,-0.484083,-2.70099
557,48.2981,-0.485907,-2.701
557.5,48.3487,-0.483653,-2.69962
558,48.3986,-0.483865,-2.6983
558.5,48.4489,-0.486622,-2.69835
559,48.4981,-0.485262,-2.69968
559.5,48.5471,-0.483951,-2.69968
560,48.5972,-0.491654,-2.69896
560.5,48.6473,-0.483413,-2.69705
561,48.6969,-0.484505,-2.69832
561.5,48.7458,-0.490366,-2.69968
562,48.795,-0.485873,-2.69968
562.5,48.8458,-0.48976,-2.69968
563,48.8951,-0.48273,-2.70059
563.5,48.9448,-0.488959,-2.69968
564,48.994,-0.480223,-2.7008
564.5,49.0439,-0.482239,-2.701
565,49.0932,-0.483649,-2.70235
565.5,49.1419,-0.485945,-2.70202
566,49.194,-0.484974,-2.701
566.5,49.2427,-0.488887,-2.701
567,49.2925,-0.48758,-2.69968
567.5,49.3419,-0.489076,-2.701
568,49.392,-0.483683,-2.701
568.5,49.4418,-0.48372,-2.70232
569,49.4911,-0.48352,-2.70233
569.5,49.541,-0.486776,-2.701
570,49.5902,-0.479227,-2.70182
570.5,49.6403,-0.481282,-2.70231
571,49.689,-0.481011,-2.70231
571.5,49.7401,-0.479581,-2.70181
572,49.7899,-0.4867,-2.70104
572.5,49.839,-0.484878,-2.69968
573,49.8881,-0.485132,-2.7006
573.5,49.9394,-0.478598,-2.69968
574,49.989,-0.473801,-2.69968
574.5,50.0385,-0.479428,-2.69968
575,50.0888,-0.476622,-2.69965
575.5,50.1384,-0.48385,-2.701
576,50.1893,-0.477067,-2.70129
576.5,50.2393,-0.475177,-2.70148
577,50.2888,-0.476943,-2.70264
577.5,50.3389,-0.477657,-2.70264
578,50.3889,-0.485104,-2.70264
578.5,50.4386,-0.484211,-2.70264
579,50.4889,-0.480388,-2.70134
579.5,50.5379,-0.475634,-2.70132
580,50.5881,-0.478298,-2.70132
580.5,50.6378,-0.481407,-2.70132
581,50.6879,-0.486659,-2.70132
581.5,50.7372,-0.484257,-2.70132
582,50.7872,-0.476873,-2.70136
582.5,50.8376,-0.47656,-2.70099
583,50.8876,-0.47429,-2.70099
583.5,50.9372,-0.471309,-2.70099
584,50.9871,-0.473849,-2.70099
584.5,51.0368,-0.476092,-2.70099
585,51.0859,-0.475151,-2.70099
585.5,51.1358,-0.47293,-2.70099
586,51.186,-0.471825,-2.70091
586.5,51.2355,-0.470642,-2.70231
587,51.2864,-0.474717,-2.70224
587.5,51.3349,-0.473169,-2.70099
588,51.3842,-0.461786,-2.69986
588.5,51.4335,-0.470618,-2.69968
589,51.4842,-0.471583,-2.69973
589.5,51.5335,-0.469274,-2.70034
590,51.584,-0.476038,-2.70034
590.5,51.6344,-0.474473,-2.70077
591,51.6839,-0.47704,-2.70099
591.5,51.7337,-0.470854,-2.70099
592,51.7826,-0.47676,-2.70099
592.5,51.8319,-0.470077,-2.70099
593,51.8833,-0.467457,-2.69968
593.5,51.9322,-0.475228,-2.69891
594,51.9821,-0.462291,-2.69967
594.5,52.0325,-0.467879,-2.70101
595,52.082,-0.46476,-2.70099
595.5,52.1301,-0.461102,-2.70102
596,52.1824,-0.465945,-2.69967
596.5,52.2304,-0.467471,-2.69967
597,52.2812,-0.472511,-2.70099
597.5,52.3322,-0.466112,-2.70099
598,52.3824,-0.470518,-2.69968
598.5,52.4317,-0.472068,-2.69836
599,52.4816,-0.471016,-2.70011
599.5,52.532,-0.478519,-2.70167
600,52.5819,-0.471518,-2.70231
600.5,52.6313,-0.469547,-2.7023
601,52.6805,-0.471646,-2.70099
601.5,52.7312,-0.474961,-2.70099
602,52.7809,-0.474043,-2.70189
602.5,52.8304,-0.471073,-2.7023
603,52.8806,-0.468952,-2.70099
603.5,52.9302,-0.467422,-2.70099
604,52.9783,-0.46814,-2.70099
604.5,53.0275,-0.465947,-2.69971
605,53.0798,-0.477471,-2.7011
605.5,53.1306,-0.470021,-2.70174
606,53.1787,-0.469598,-2.70177
606.5,53.2291,-0.472318,-2.70177
607,53.2787,-0.475407,-2.70177
607.5,53.3268,-0.475046,-2.70177
608,53.379,-0.467381,-2.70046
608.5,53.4292,-0.474097,-2.70105
609,53.4786,-0.465491,-2.7024
609.5,53.5283,-0.468516,-2.7024
610,53.5786,-0.468711,-2.70176
610.5,53.6294,-0.46679,-2.70177
611,53.6785,-0.460821,-2.7006
611.5,53.7289,-0.467393,-2.70046
612,53.7792,-0.476474,-2.70091
612.5,53.8288,-0.471776,-2.70111
613,53.8788,-0.477053,-2.70151
613.5,53.9289,-0.471824,-2.70242
614,53.9781,-0.472419,-2.70337
614.5,54.0264,-0.468445,-2.70371
615,54.0768,-0.478079,-2.70306
615.5,54.1294,-0.479893,-2.70241
616,54.1794,-0.472202,-2.70112
616.5,54.2297,-0.467167,-2.7024
617,54.2795,-0.475378,-2.70375
617.5,54.3299,-0.47267,-2.70374
618,54.3791,-0.476078,-2.70374
618.5,54.4296,-0.477916,-2.70374
619,54.4787,-0.485716,-2.70284
619.5,54.5295,-0.485782,-2.70139
620,54.5797,-0.474837,-2.7001
620.5,54.6301,-0.475382,-2.70012
621,54.6799,-0.481629,-2.70012
621.5,54.73,-0.472183,-2.70012
622,54.7794,-0.469468,-2.70012
622.5,54.8294,-0.473474,-2.70011
623,54.8794,-0.47858,-2.69881
623.5,54.9297,-0.468882,-2.6988
624,54.9786,-0.481722,-2.6985
624.5,55.0301,-0.473778,-2.69847
625,55.0802,-0.477127,-2.69802
625.5,55.1301,-0.475384,-2.69912
626,55.1805,-0.474871,-2.70044
626.5,55.2302,-0.478651,-2.70179
627,55.2797,-0.475784,-2.70299
627.5,55.3302,-0.476961,-2.70309
628,55.3804,-0.474951,-2.7044
628.5,55.4302,-0.478015,-2.7044
629,55.4803,-0.480763,-2.7044
629.5,55.5305,-0.476643,-2.70294
630,55.581,-0.474674,-2.70297
630.5,55.6302,-0.482845,-2.70298
631,55.6797,-0.476199,-2.70365
631.5,55.7308,-0.474451,-2.70349
632,55.7808,-0.478863,-2.70302
632.5,55.8308,-0.480075,-2.70165
633,55.881,-0.481606,-2.70165
633.5,55.9312,-0.48345,-2.70165
634,55.9807,-0.476523,-2.70165
634.5,56.032,-0.474759,-2.70297
635,56.0823,-0.474165,-2.70297
635.5,56.1324,-0.474009,-2.70429
636,56.1819,-0.474856,-2.70429
636.5,56.2326,-0.484708,-2.70429
637,56.2819,-0.480811,-2.70365
637.5,56.332,-0.480049,-2.70461
638,56.3818,-0.476953,-2.70461
638.5,56.4304,-0.478919,-2.70461
639,56.4821,-0.485272,-2.70461
639.5,56.5325,-0.48058,-2.70305
640,56.5816,-0.483459,-2.70122
640.5,56.6334,-0.489655,-2.70253
641,56.6831,-0.490877,-2.70517
641.5,56.7326,-0.49227,-2.70516
642,56.7825,-0.496995,-2.7044
642.5,56.8338,-0.489753,-2.70249
643,56.8823,-0.498247,-2.70254
643.5,56.9331,-0.492294,-2.70254
644,56.9836,-0.496147,-2.70383
644.5,57.0341,-0.483757,-2.70517
645,57.0828,-0.494696,-2.70518
645.5,57.1313,-0.489112,-2.70385
646,57.1826,-0.497718,-2.70385
646.5,57.2335,-0.497256,-2.70385
647,57.2836,-0.493597,-2.70517
647.5,57.3336,-0.496096,-2.70517
648,57.3837,-0.495559,-2.70517
648.5,57.4333,-0.495819,-2.70517
649,57.4843,-0.494668,-2.70518
649.5,57.5345,-0.497814,-2.70384
650,57.5838,-0.49372,-2.70385
650.5,57.6334,-0.489532,-2.70385
651,57.6841,-0.494461,-2.70385
651.5,57.7325,-0.490447,-2.70385
652,57.7835,-0.497761,-2.70385
652.5,57.8342,-0.487461,-2.70404
653,57.8838,-0.493955,-2.70517
653.5,57.935,-0.487323,-2.70517
654,57.9847,-0.483607,-2.70517
654.5,58.0357,-0.490775,-2.70523
655,58.0854,-0.499678,-2.70616
655.5,58.1349,-0.501721,-2.70616
656,58.1854,-0.502372,-2.70653
656.5,58.2359,-0.498758,-2.70572
657,58.2854,-0.498551,-2.70521
657.5,58.3349,-0.495965,-2.70327
658,58.3848,-0.498793,-2.70286
658.5,58.4356,-0.493431,-2.70287
659,58.4864,-0.504005,-2.70417
659.5,58.5343,-0.502809,-2.7042
660,58.5854,-0.503394,-2.7055
660.5,58.6345,-0.502212,-2.7055
661,58.6841,-0.50091,-2.7055
661.5,58.7348,-0.501141,-2.70489
662,58.7854,-0.505672,-2.7055
662.5,58.8346,-0.508796,-2.7055
663,58.8858,-0.497729,-2.70584
663.5,58.9349,-0.507067,-2.70583
664,58.9855,-0.51386,-2.70711
664.5,59.0357,-0.518672,-2.70824
665,59.0854,-0.516664,-2.70813
665.5,59.1355,-0.510825,-2.70721
666,59.1852,-0.511401,-2.70681
666.5,59.2353,-0.519635,-2.70883
667,59.286,-0.517377,-2.70945
667.5,59.3357,-0.518696,-2.70945
668,59.3867,-0.521762,-2.70945
668.5,59.4359,-0.518229,-2.70937
669,59.4862,-0.522437,-2.71077
669.5,59.5373,-0.520212,-2.71079
670,59.5868,-0.519774,-2.71208
670.5,59.637,-0.517631,-2.71208
671,59.6878,-0.519898,-2.71161
671.5,59.7376,-0.519152,-2.70968
672,59.7881,-0.508197,-2.70748
672.5,59.8385,-0.509253,-2.70651
673,59.8886,-0.51016,-2.70648
673.5,59.9386,-0.510736,-2.70648
674,59.989,-0.501691,-2.70808
674.5,60.0401,-0.505454,-2.70769
675,60.0894,-0.506261,-2.70728
675.5,60.1391,-0.515018,-2.7067
676,60.1876,-0.504501,-2.70799
676.5,60.2404,-0.50326,-2.70923
677,60.2879,-0.504519,-2.70934
677.5,60.3408,-0.500133,-2.70877
678,60.3919,-0.501469,-2.70659
678.5,60.4418,-0.500394,-2.70659
679,60.4905,-0.499157,-2.70629
679.5,60.5422,-0.501576,-2.70626
680,60.5922,-0.498149,-2.70661
680.5,60.6419,-0.498425,-2.70638
681,60.6904,-0.501737,-2.70627
681.5,60.7423,-0.497541,-2.70759
682,60.793,-0.493872,-2.70759
682.5,60.8438,-0.500642,-2.70759
683,60.8933,-0.493676,-2.70759
683.5,60.9434,-0.497022,-2.70759
684,60.994,-0.501623,-2.70758
684.5,61.0446,-0.498232,-2.70891
685,61.0946,-0.50337,-2.70891
685.5,61.1444,-0.501441,-2.70923
686,61.1949,-0.495565,-2.70923
686.5,61.2445,-0.490128,-2.70923
687,61.2954,-0.490629,-2.70923
687.5,61.3443,-0.486351,-2.70833
688,61.3943,-0.489472,-2.70791
688.5,61.4449,-0.482749,-2.70791
689,61.4949,-0.482258,-2.70791
689.5,61.5429,-0.483382,-2.70791
690,61.5953,-0.480494,-2.70791
690.5,61.6449,-0.475781,-2.70872
691,61.6945,-0.479694,-2.7089
691.5,61.7446,-0.484722,-2.70891
692,61.7952,-0.478348,-2.70908
692.5,61.8457,-0.485452,-2.7089
693,61.895,-0.479325,-2.7089
693.5,61.9447,-0.480707,-2.70881
694,61.995,-0.47232,-2.70989
694.5,62.0446,-0.473344,-2.70989
695,62.0948,-0.479244,-2.70857
695.5,62.1446,-0.47445,-2.70975
696,62.1951,-0.480278,-2.70989
696.5,62.2458,-0.470427,-2.70989
697,62.2958,-0.480349,-2.70989
697.5,62.3461,-0.474566,-2.70989
698,62.3959,-0.47245,-2.70955
698.5,62.4463,-0.475264,-2.7106
699,62.4966,-0.475117,-2.71224
699.5,62.5467,-0.467828,-2.71212
700,62.5981,-0.469758,-2.71154
700.5,62.6465,-0.471432,-2.71148
701,62.6969,-0.472307,-2.71018
701.5,62.7476,-0.473884,-2.70884
702,62.7978,-0.473699,-2.70824
702.5,62.8473,-0.472223,-2.70824
703,62.8973,-0.476357,-2.70776
703.5,62.9468,-0.467973,-2.70758
704,62.9977,-0.464683,-2.70758
704.5,63.0479,-0.466231,-2.70758
705,63.0982,-0.467262,-2.70758
705.5,63.1481,-0.46316,-2.70758
706,63.1985,-0.470127,-2.70758
706.5,63.2478,-0.464892,-2.70758
707,63.2986,-0.465523,-2.70824
707.5,63.3483,-0.460722,-2.70954
708,63.3998,-0.461195,-2.70955
708.5,63.4504,-0.466934,-2.70955
709,63.4997,-0.459595,-2.70955
709.5,63.5482,-0.458817,-2.70955
710,63.6008,-0.462111,-2.71081
710.5,63.6515,-0.465441,-2.70956
711,63.7009,-0.462139,-2.70956
711.5,63.7522,-0.462245,-2.70956
712,63.8006,-0.461845,-2.71086
712.5,63.8511,-0.458123,-2.71087
713,63.9028,-0.457944,-2.70956
713.5,63.9528,-0.456633,-2.70956
714,64.0034,-0.45302,-2.70956
714.5,64.0537,-0.459753,-2.70956
715,64.1023,-0.459281,-2.70956
715.5,64.1541,-0.45771,-2.70956
716,64.2046,-0.460416,-2.70956
716.5,64.2548,-0.463838,-2.70956
717,64.3057,-0.469884,-2.70935
717.5,64.3562,-0.462853,-2.7089
718,64.4052,-0.46059,-2.7089
718.5,64.456,-0.462432,-2.7089
719,64.5057,-0.457996,-2.70892
719.5,64.5561,-0.466818,-2.70824
720,64.6067,-0.465047,-2.70824
720.5,64.6573,-0.470717,-2.70824
721,64.7062,-0.468055,-2.70824
721.5,64.7553,-0.471223,-2.70965
722,64.8072,-0.469796,-2.70956
722.5,64.8574,-0.470678,-2.70956
723,64.9082,-0.473422,-2.70888
723.5,64.9581,-0.469909,-2.71027
724,65.0079,-0.468833,-2.70922
724.5,65.0587,-0.470681,-2.70923
725,65.1087,-0.466455,-2.70923
725.5,65.1589,-0.467413,-2.70915
726,65.2102,-0.461076,-2.70989
726.5,65.2598,-0.471655,-2.71055
727,65.3108,-0.462999,-2.71055
727.5,65.3609,-0.464755,-2.71116
728,65.4111,-0.470015,-2.71017
728.5,65.4616,-0.465033,-2.71087
729,65.5117,-0.46898,-2.71087
729.5,65.5614,-0.466291,-2.71087
730,65.612,-0.459777,-2.71087
730.5,65.6629,-0.469197,-2.70951
731,65.7134,-0.471239,-2.70956
731.5,65.7636,-0.464307,-2.70957
732,65.8143,-0.471086,-2.71087
732.5,65.8646,-0.468467,-2.71049
733,65.9156,-0.471261,-2.71054
733.5,65.9654,-0.467899,-2.71054
734,66.015,-0.466233,-2.71054
734.5,66.0658,-0.466281,-2.71054
735,66.1173,-0.469713,-2.71054
735.5,66.1649,-0.468368,-2.71054
736,66.2164,-0.469674,-2.71054
736.5,66.2671,-0.471517,-2.71054
737,66.318,-0.474047,-2.71054
737.5,66.3677,-0.47999,-2.71054
738,66.419,-0.476445,-2.70973
738.5,66.4704,-0.472715,-2.70956
739,66.5199,-0.474765,-2.71086
739.5,66.5698,-0.475541,-2.71219
740,66.6202,-0.477511,-2.71212