File: 01_Data/PC_Bourke/STA/N2/30K_min/PC_Bourke_STA_N2_30KData_250527_R1.csv
Temp./C,Time/min,DSC/(mW/mg),Mass loss/mg
40.0,0.0,0.962084,0.00317782
40.6,0.0384701,1.00428,0.00347014
41.2,0.0753508,1.05243,0.00250583
41.8,0.11204,1.08949,0.00444187
42.4,0.146148,1.12864,0.00272816
43,0.180374,1.17178,0.00304719
43.6,0.214893,1.20623,0.00235145
44.2,0.245264,1.23846,0.00254246
44.8,0.27897,1.26616,0.00349834
45.4,0.311436,1.30784,0.00358373
46,0.342366,1.32831,0.00260566
46.6,0.372641,1.36006,0.00172721
47.2,0.403729,1.38462,0.0025878
47.8,0.433625,1.4168,0.0027573
48.4,0.463607,1.44239,0.00372471
49,0.492994,1.47304,0.00386649
49.6,0.519788,1.49721,0.00186709
50.2,0.550263,1.52092,0.00142592
50.8,0.578416,1.5447,0.00166958
51.4,0.606945,1.57226,0.00166951
52,0.634256,1.61094,0.0024247
52.6,0.661493,1.64301,0.0025343
53.2,0.689479,1.67868,0.00210168
53.8,0.716443,1.71783,0.00272031
54.4,0.743534,1.77425,0.00283569
55,0.770188,1.85655,0.00207932
55.6,0.796445,1.93746,0.00201707
56.2,0.822585,1.94263,0.00324719
56.8,0.848354,1.95427,0.00310404
57.4,0.875056,1.96514,0.00215868
58,0.900275,1.96383,0.0015454
58.6,0.926409,1.97445,-0.000601643
59.2,0.951331,1.98608,-0.00547536
59.8,0.976551,1.98968,-0.00526199
60.4,1.00204,1.99523,-6.93529e-05
61,1.02756,2.00905,0.00233413
61.6,1.05109,2.03208,0.00307008
62.2,1.07689,2.03489,0.00367273
62.8,1.10176,2.04738,0.00353064
63.4,1.12616,2.05911,0.00294399
64,1.15082,2.06849,0.00240906
64.6,1.1746,2.09546,0.00237788
65.2,1.19874,2.09939,0.00198055
65.8,1.22292,2.11644,0.000915772
66.4,1.24775,2.12534,0.000379797
67,1.27078,2.13929,0.000820506
67.6,1.29528,2.1515,0.00104819
68.2,1.31879,2.16787,0.00143444
68.8,1.34299,2.18522,0.00158521
69.4,1.36633,2.20047,0.00171273
70,1.39031,2.21555,0.00259299
70.6,1.41324,2.22938,0.0021293
71.2,1.43699,2.24333,0.00157122
71.8,1.46112,2.25674,0.00105757
72.4,1.48396,2.27047,-3.85794e-05
73,1.50741,2.28288,0.000222435
73.6,1.53081,2.29548,-0.000538113
74.2,1.55369,2.3001,-0.000332398
74.8,1.57634,2.31886,3.63731e-05
75.4,1.59951,2.3338,0.00126598
76,1.62264,2.34289,0.000108858
76.6,1.64545,2.35475,0.000275136
77.2,1.66873,2.35834,0.000839574
77.8,1.69165,2.35628,0.000364249
78.4,1.71408,2.36293,0.000490611
79,1.73645,2.37389,0.00039257
79.6,1.75922,2.38158,0.000572721
80.2,1.78192,2.39082,0.00126911
80.8,1.80469,2.38838,0.00045107
81.4,1.82711,2.39668,0.00197221
82,1.84921,2.39934,0.00132277
82.6,1.87019,2.4133,0.00160539
83.2,1.8928,2.40882,0.000764828
83.8,1.9152,2.41416,0.000615163
84.4,1.93816,2.42488,0.00120124
85,1.96023,2.42099,0.000229188
85.6,1.98267,2.42036,0.000306735
86.2,2.0041,2.43181,-0.000466322
86.8,2.02612,2.45147,0.000220482
87.4,2.04812,2.45583,0.000223675
88,2.06986,2.47339,-0.00110614
88.6,2.09185,2.48124,0.000383837
89.2,2.11363,2.48541,-0.000656293
89.8,2.13479,2.49359,0.000318251
90.4,2.15645,2.50656,-0.000522219
91,2.17823,2.50871,0.000304725
91.6,2.19989,2.52374,-0.00120407
92.2,2.22118,2.53987,-0.00127572
92.8,2.242,2.55295,-0.00169276
93.4,2.26378,2.5594,-0.00120138
94,2.28517,2.5702,-0.00143606
94.6,2.30678,2.58125,-0.00119816
95.2,2.32813,2.59283,0.000396039
95.8,2.34914,2.60532,0.000328189
96.4,2.37034,2.61844,0.000240163
97,2.39184,2.6248,-0.000178671
97.6,2.41253,2.64303,-0.00079319
98.2,2.43326,2.65939,-0.00119317
98.8,2.45417,2.66724,-0.00107012
99.4,2.47566,2.67394,0.00010731
100,2.4966,2.68726,-0.000639202
100.6,2.51726,2.7013,-0.00117149
101.2,2.53822,2.70665,-0.0026125
101.8,2.55906,2.71389,-0.00432189
102.4,2.57991,2.7225,-0.00595238
103,2.59941,2.73311,-0.0035394
103.6,2.62179,2.74861,-0.00176625
104.2,2.64242,2.75809,-0.00112222
104.8,2.663,2.75976,-0.00110279
105.4,2.6836,2.77514,2.8532e-05
106,2.70457,2.78219,0.000337707
106.6,2.72462,2.79324,0.00111189
107.2,2.74538,2.79737,0.00170536
107.8,2.76617,2.80834,0.000474347
108.4,2.78643,2.81979,0.000337555
109,2.80718,2.83421,0.000690431
109.6,2.82794,2.84456,0.00164153
110.2,2.84775,2.8467,0.000395455
110.8,2.86874,2.86048,0.000328789
111.4,2.88914,2.86879,0.000322639
112,2.90963,2.88488,-0.000155694
112.6,2.92956,2.89527,0.000328478
113.2,2.94992,2.90105,0.000320048
113.8,2.96922,2.90478,0.000334801
114.4,2.98976,2.92001,-0.000124216
115,3.01012,2.93472,0.000306506
115.6,3.0309,2.9348,0.000327166
116.2,3.0515,2.94017,0.000317973
116.8,3.07185,2.94608,-0.00107589
117.4,3.09184,2.95999,-0.00104374
118,3.11226,2.95878,0.000102141
118.6,3.1329,2.96606,0.000319591
119.2,3.15278,2.97841,0.000328581
119.8,3.17274,2.98804,0.000318086
120.4,3.19318,2.99485,0.0001656
121,3.2132,3.00847,-0.000972377
121.6,3.23317,3.00896,-0.000377561
122.2,3.25322,3.02242,0.000379175
122.8,3.27303,3.03394,-0.000859125
123.4,3.29317,3.04422,-0.000895731
124,3.31284,3.05819,0.000389986
124.6,3.3329,3.0565,0.000206412
125.2,3.3527,3.06602,-0.00104354
125.8,3.37258,3.07739,-0.000993953
126.4,3.39235,3.0795,-0.000994066
127,3.41216,3.09776,-0.00104204
127.6,3.4316,3.10255,4.99891e-05
128.2,3.45178,3.12193,0.000317349
128.8,3.47081,3.12843,0.000329068
129.4,3.49074,3.14868,0.000329454
130,3.51034,3.15226,0.000324015
130.6,3.5302,3.15233,-0.00105254
131.2,3.55007,3.16821,0.000113602
131.8,3.5694,3.17327,7.87607e-06
132.4,3.58899,3.18815,5.05553e-07
133,3.60854,3.18851,3.39803e-08
133.6,3.6277,3.20201,1.64859e-09
134.2,3.64743,3.20881,1.87448e-10
134.8,3.66672,3.22104,2.83405e-09
135.4,3.68611,3.22818,5.272e-08
136,3.70566,3.23647,8.45659e-07
136.6,3.72548,3.2489,1.15295e-05
137.2,3.74437,3.258,0.000330468
137.8,3.76381,3.26744,-0.000835765
138.4,3.78309,3.28322,-0.00109462
139,3.8026,3.29615,0.000275443
139.6,3.82155,3.30276,0.000318601
140.2,3.84093,3.32394,0.000319888
140.8,3.86006,3.34629,0.000319994
141.4,3.87939,3.35529,0.000320017
142,3.89759,3.37569,0.000320269
142.6,3.91773,3.38615,0.000324141
143.2,3.93669,3.39971,0.000371111
143.8,3.95589,3.43537,-0.000678423
144.4,3.97487,3.45002,-0.000977688
145,3.99434,3.46589,-0.000989144
145.6,4.01346,3.49848,-0.00098995
146.2,4.03236,3.53025,-0.000989877
146.8,4.05141,3.55835,-0.000988392
147.4,4.07022,3.58432,-0.000972662
148,4.0897,3.61045,-0.000765781
148.6,4.10847,3.63554,0.000334765
149.2,4.12754,3.65892,0.000330177
149.8,4.14657,3.69317,0.000329994
150.4,4.16571,3.72318,0.000329998
151,4.18419,3.74772,0.000329999
151.6,4.20341,3.77876,0.000329997
152.2,4.22228,3.81838,0.000329955
152.8,4.24148,3.84547,0.000329432
153.4,4.26002,3.87868,0.000324664
154,4.27921,3.90963,0.000889163
154.6,4.29784,3.93043,0.00163786
155.2,4.31675,3.93652,0.00165385
155.8,4.33547,3.95214,0.00113535
156.4,4.35431,3.96451,0.000340053
157,4.37323,3.97077,0.000329601
157.6,4.39153,3.97811,0.000329827
158.2,4.41056,3.99293,0.000329979
158.8,4.42914,3.99789,0.000329998
159.4,4.44791,4.01987,0.00033
160,4.46712,4.02943,0.00033
160.6,4.48525,4.04158,0.00033
161.2,4.50376,4.04133,0.00033
161.8,4.52191,4.05323,0.000329988
162.4,4.54117,4.06031,0.00032975
163,4.55997,4.06474,0.000326165
163.6,4.57848,4.08186,0.000281583
164.2,4.597,4.0908,0.00124693
164.8,4.61594,4.10168,0.00164032
165.4,4.6344,4.10724,0.00164972
166,4.65283,4.11417,0.00165007
166.6,4.67171,4.12226,0.00165047
167.2,4.68997,4.13033,0.00165692
167.8,4.70862,4.14174,0.00173182
168.4,4.72728,4.15289,0.000472843
169,4.74556,4.16025,0.000331468
169.6,4.76449,4.16508,0.000330011
170.2,4.78223,4.16835,0.000329987
170.8,4.80137,4.16813,0.000329998
171.4,4.81995,4.17822,0.00033
172,4.83836,4.19049,0.00033
172.6,4.8564,4.20225,0.00033
173.2,4.87541,4.20868,0.00033
173.8,4.89364,4.21146,0.00033
174.4,4.9122,4.21439,0.00033
175,4.93063,4.22408,0.00033
175.6,4.94904,4.23468,0.00033
176.2,4.96754,4.24597,0.00033
176.8,4.98608,4.24889,0.00033
177.4,5.00432,4.24639,0.00033
178,5.02263,4.24893,0.00033
178.6,5.04093,4.25446,0.00033
179.2,5.05884,4.25421,0.00033
179.8,5.0776,4.26129,0.00033
180.4,5.0958,4.27362,0.00033
181,5.11412,4.27859,0.00033
181.6,5.13252,4.28128,0.00033
182.2,5.15091,4.28581,0.00033
182.8,5.16887,4.28494,0.00033
183.4,5.18739,4.30047,0.00033
184,5.20545,4.29498,0.00033
184.6,5.22368,4.30532,0.00033
185.2,5.2418,4.30652,0.00033
185.8,5.26019,4.32007,0.00033
186.4,5.27841,4.31516,0.000329999
187,5.29654,4.31573,0.000329996
187.6,5.3147,4.32832,0.000330005
188.2,5.33278,4.33767,0.000330636
188.8,5.35075,4.34421,0.000339147
189.4,5.36933,4.34448,0.000469232
190,5.3872,4.34736,0.000652482
190.6,5.4054,4.35527,0.000659822
191.2,5.42332,4.35719,0.000660041
191.8,5.44151,4.36116,0.000660007
192.4,5.45981,4.36815,0.000659992
193,5.47798,4.37656,0.000659931
193.6,5.4959,4.38286,0.000659665
194.2,5.51392,4.38631,0.000662961
194.8,5.53202,4.38913,0.000870339
195.4,5.55022,4.39602,0.00134145
196,5.56806,4.39736,0.00132176
196.6,5.58602,4.40348,0.00132005
197.2,5.60431,4.40779,0.00131988
197.8,5.62228,4.40665,0.00131818
198.4,5.64007,4.41509,0.00129151
199,5.65816,4.42894,-5.95362e-05
199.6,5.67639,4.43345,1.9962e-06
200.2,5.69441,4.43713,9.13989e-07
200.8,5.71171,4.45288,1.36857e-07
201.4,5.72971,4.46397,9.17435e-09
202,5.74759,4.4695,2.51196e-10
202.6,5.76616,4.47645,-2.23669e-11
203.2,5.78416,4.47776,-6.89515e-12
203.8,5.80237,4.48347,-7.08822e-13
204.4,5.82021,4.4993,3.81362e-14
205,5.83819,4.50901,6.86118e-14
205.6,5.85609,4.50991,3.53495e-13
206.2,5.87408,4.51849,8.57181e-12
206.8,5.89217,4.52585,1.14071e-10
207.4,5.91014,4.53626,1.12765e-09
208,5.92745,4.54162,2.59498e-09
208.6,5.94512,4.54937,-6.30355e-08
209.2,5.96365,4.55638,-1.20226e-06
209.8,5.98155,4.55822,-1.48525e-05
210.4,5.99957,4.56229,-0.000138672
211,6.01693,4.57419,-0.000990687
211.6,6.03475,4.58088,-0.0009886
212.2,6.0536,4.58972,-0.00098983
212.8,6.07065,4.59464,-0.00098993
213.4,6.08913,4.60111,-0.000989578
214,6.10717,4.61207,-0.00098927
214.6,6.12497,4.61398,-0.0010295
215.2,6.14279,4.62549,0.000127481
215.8,6.16071,4.6281,0.000315348
216.4,6.17855,4.63339,0.000327972
217,6.19642,4.63865,0.000325727
217.6,6.21436,4.6431,0.000611601
218.2,6.23196,4.64876,0.000652939
218.8,6.25022,4.64917,0.000659089
219.4,6.26781,4.65596,0.00065843
220,6.28578,4.65879,0.000661444
220.6,6.30359,4.66127,0.00112978
221.2,6.32133,4.66829,0.00201478
221.8,6.3396,4.67623,0.00197332
222.4,6.35724,4.6793,0.00197003
223,6.37472,4.68366,0.00197148
223.6,6.39286,4.68929,0.00199335
224.2,6.41047,4.69427,0.00148845
224.8,6.42839,4.706,0.00128462
225.4,6.44629,4.70827,0.000659175
226,6.46447,4.7185,0.000653095
226.6,6.4821,4.7165,0.000650432
227.2,6.49968,4.71351,0.000650052
227.8,6.51768,4.712,0.000650074
228.4,6.5354,4.71466,0.000648774
229,6.55319,4.72974,0.00062389
229.6,6.57098,4.73062,0.000284294
230.2,6.589,4.73421,-0.00067676
230.8,6.60673,4.74577,-0.000669958
231.4,6.62444,4.75316,-0.000669928
232,6.64233,4.75427,-0.00066999
232.6,6.66027,4.75677,-0.000669999
233.2,6.67798,4.75962,-0.00067
233.8,6.69507,4.76178,-0.00067
234.4,6.7129,4.77555,-0.000669991
235,6.73096,4.76996,-0.000669895
235.6,6.74869,4.77033,-0.000669284
236.2,6.76639,4.77158,-0.000669919
236.8,6.78428,4.77391,0.000489532
237.4,6.80208,4.77734,0.000530202
238,6.81994,4.77932,0.00183544
238.6,6.83779,4.7757,0.00196911
239.2,6.85573,4.78579,0.00197011
239.8,6.87326,4.79288,0.00197006
240.4,6.89105,4.79467,0.00197038
241,6.90872,4.79822,0.00197229
241.6,6.92649,4.79518,0.00166896
242.2,6.94403,4.80317,0.000593209
242.8,6.96192,4.80728,0.000643279
243.4,6.97981,4.80217,0.000649525
244,6.99723,4.80435,0.000649994
244.6,7.01493,4.80528,0.000649929
245.2,7.03272,4.80798,0.00064872
245.8,7.05066,4.81309,0.000618622
246.4,7.06823,4.81353,-0.000721993
247,7.08602,4.8123,-0.000656143
247.6,7.10351,4.81093,-0.000658755
248.2,7.12141,4.8163,-0.000659867
248.8,7.13916,4.82005,-0.000659992
249.4,7.15693,4.82729,-0.00066
250,7.17448,4.83185,-0.00065999
250.6,7.19211,4.8339,-0.000659801
251.2,7.21021,4.83339,-0.000657822
251.8,7.22792,4.83714,-0.000650484
252.4,7.24542,4.82952,0.000612097
253,7.2625,4.82697,0.000644051
253.6,7.2808,4.82681,0.000658281
254.2,7.2985,4.83222,0.000659887
254.8,7.31625,4.82788,0.000660002
255.4,7.33335,4.83533,0.000659995
256,7.35134,4.83652,0.000659904
256.6,7.36894,4.83497,0.00065928
257.2,7.38652,4.82867,0.00066103
257.8,7.40468,4.83299,0.000722746
258.4,7.42252,4.82952,-6.24452e-05
259,7.44017,4.83612,-5.81617e-06
259.6,7.45769,4.83782,-4.07268e-07
260.2,7.47548,4.83914,2.21012e-06
260.8,7.49321,4.83671,5.11068e-05
261.4,7.51075,4.83394,-0.000985339
262,7.52867,4.84184,-0.00135335
262.6,7.54609,4.84553,-0.000335463
263.2,7.5642,4.8341,2.75952e-06
263.8,7.58149,4.8333,3.38608e-07
264.4,7.5989,4.83267,3.96564e-08
265,7.61702,4.82963,1.46935e-08
265.6,7.63459,4.83455,-1.5699e-06
266.2,7.65236,4.83556,-2.42356e-05
266.8,7.66977,4.83726,-0.000239898
267.4,7.68738,4.83866,-0.00132224
268,7.70522,4.83569,-0.00131934
268.6,7.72293,4.83313,-0.00131976
269.2,7.74048,4.83484,-0.00131869
269.8,7.75802,4.83029,-0.00131407
270.4,7.77589,4.82549,-6.38012e-05
271,7.79343,4.82684,-1.89088e-05
271.6,7.8111,4.82724,-1.81228e-06
272.2,7.82854,4.83107,-1.18897e-07
272.8,7.84653,4.82872,-4.60261e-08
273.4,7.86422,4.83098,1.50797e-06
274,7.88187,4.82577,9.60441e-05
274.6,7.89968,4.82481,0.00139733
275.2,7.91682,4.82428,0.00131479
275.8,7.93464,4.82402,0.000348205
276.4,7.95249,4.82846,0.000323745
277,7.97014,4.82791,0.000321943
277.6,7.98776,4.82562,0.000325611
278.2,8.00477,4.82715,4.14327e-05
278.8,8.02347,4.82308,-5.9612e-06
279.4,8.04063,4.82084,-4.28584e-05
280,8.05892,4.81531,0.000352786
280.6,8.07627,4.82325,0.000319499
281.2,8.09413,4.83038,0.00031976
281.8,8.11126,4.82739,0.000319959
282.4,8.12899,4.8283,0.000319996
283,8.14693,4.82721,0.00032
283.6,8.16448,4.82742,0.00032
284.2,8.18239,4.82577,0.00032
284.8,8.20008,4.82667,0.00032
285.4,8.21744,4.8262,0.00032
286,8.23554,4.8261,0.000319996
286.6,8.25283,4.82757,0.000319917
287.2,8.27106,4.82827,0.000319042
287.8,8.28861,4.82336,0.000314274
288.4,8.30606,4.828,0.000345798
289,8.32393,4.82933,-0.00062478
289.6,8.3414,4.82902,-0.000665946
290.2,8.35927,4.83242,-0.000672909
290.8,8.37702,4.83167,-0.000686246
291.4,8.39463,4.84043,-7.46905e-05
292,8.4122,4.84096,0.000330433
292.6,8.43008,4.8368,0.000321091
293.2,8.448,4.83268,0.000320065
293.8,8.46533,4.83189,0.000319998
294.4,8.48334,4.82603,0.000320068
295,8.50073,4.82733,0.000321219
295.6,8.51867,4.82725,0.000332322
296.2,8.53604,4.81762,0.000390104
296.8,8.55415,4.81756,0.00129311
297.4,8.57176,4.81114,0.00131604
298,8.58967,4.8064,0.00131966
298.6,8.60729,4.81642,0.00131999
299.2,8.62491,4.81016,0.00132
299.8,8.64271,4.81089,0.00132
300.4,8.66009,4.81319,0.00132002
301,8.67808,4.80801,0.00132009
301.6,8.69567,4.80741,0.00131918
302.2,8.71328,4.80687,0.00120928
302.8,8.73116,4.8076,-0.000101838
303.4,8.74888,4.80622,-5.80262e-06
304,8.76655,4.80343,9.38251e-08
304.6,8.78453,4.80193,6.61319e-08
305.2,8.80212,4.79876,5.76156e-08
305.8,8.81975,4.79311,3.78483e-07
306.4,8.83743,4.79177,9.66752e-07
307,8.85529,4.79329,-2.46653e-05
307.6,8.87305,4.79063,0.00035581
308.2,8.89069,4.79358,0.000332502
308.8,8.90834,4.79505,0.000330117
309.4,8.92624,4.78442,0.000329995
310,8.94377,4.78527,0.000329997
310.6,8.96171,4.78441,0.000329979
311.2,8.97948,4.7837,0.000329762
311.8,8.99714,4.79021,0.000328301
312.4,9.01492,4.78717,0.000330382
313,9.03287,4.78188,0.000816159
313.6,9.05037,4.78304,0.00175751
314.2,9.06819,4.77791,0.00056037
314.8,9.0853,4.77833,0.000328713
315.4,9.10349,4.77578,0.000329786
316,9.12154,4.77301,0.000330291
316.6,9.13928,4.7725,0.000333815
317.2,9.15676,4.76611,0.000357488
317.8,9.1747,4.76314,-0.000339232
318.4,9.19267,4.7668,-0.000667174
319,9.21013,4.76879,-0.000660933
319.6,9.22821,4.77165,-0.000660078
320.2,9.24594,4.7725,-0.000660004
320.8,9.26395,4.77638,-0.00066
321.4,9.28146,4.77292,-0.00066
322,9.29911,4.77548,-0.000660001
322.6,9.3172,4.77738,-0.000659982
323.2,9.33497,4.77573,-0.000659439
323.8,9.35239,4.78473,-0.000653494
324.4,9.37054,4.78859,-0.00141926
325,9.38834,4.78362,-0.00101039
325.6,9.40636,4.77119,-0.000679934
326.2,9.42393,4.76944,-0.000669772
326.8,9.44146,4.76739,-0.000669884
327.4,9.45877,4.76631,-0.000669984
328,9.47711,4.76624,-0.000669999
328.6,9.49513,4.7582,-0.00067
329.2,9.51278,4.75441,-0.00067
329.8,9.5306,4.74581,-0.00067
330.4,9.54859,4.7369,-0.00067
331,9.56628,4.73159,-0.00067
331.6,9.58399,4.72195,-0.00067
332.2,9.60195,4.7294,-0.000669999
332.8,9.61988,4.73227,-0.000669995
333.4,9.63749,4.72583,-0.000670131
334,9.65551,4.71735,-0.000672093
334.6,9.67296,4.71707,-0.000693561
335.2,9.69105,4.71425,-0.000625713
335.8,9.70879,4.7099,-0.000613339
336.4,9.7266,4.70282,-0.000656012
337,9.74438,4.70907,-0.000659757
337.6,9.76234,4.70598,-0.000660781
338.2,9.78028,4.69738,-0.000679161
338.8,9.79831,4.6973,-0.000949914
339.4,9.81609,4.6936,-0.00130344
340,9.83384,4.68798,-0.00131973
340.6,9.85169,4.69412,-0.00132016
341.2,9.86954,4.69065,-0.00132002
341.8,9.88723,4.68299,-0.00132002
342.4,9.90524,4.68586,-0.0013201
343,9.92323,4.68587,-0.0013198
343.6,9.941,4.67082,-0.0013106
344.2,9.95912,4.67398,-0.00100433
344.8,9.97682,4.67158,5.56633e-05
345.4,9.99475,4.66857,-9.11617e-06
346,10.0126,4.67028,-0.000320178
346.6,10.0304,4.6675,-0.00137348
347.2,10.0483,4.6613,-0.00132242
347.8,10.0664,4.66467,-0.00131992
348.4,10.0842,4.66715,-0.00131996
349,10.1022,4.66248,-0.00132
349.6,10.12,4.66488,-0.00132
350.2,10.1381,4.66099,-0.00132
350.8,10.1562,4.65286,-0.00132
351.4,10.1741,4.65168,-0.00132004
352,10.1918,4.64966,-0.00132064
352.6,10.2097,4.65059,-0.00132551
353.2,10.2278,4.65158,-0.00134466
353.8,10.2453,4.64482,-0.00163928
354.4,10.2635,4.64164,-0.00220012
355,10.2815,4.63817,-0.00266934
355.6,10.2995,4.63186,-0.00264185
356.2,10.3173,4.62851,-0.00264004
356.8,10.3355,4.63479,-0.00263999
357.4,10.3531,4.63408,-0.00264
358,10.3717,4.62649,-0.00264
358.6,10.3893,4.62763,-0.00264
359.2,10.4074,4.62914,-0.00264
359.8,10.4255,4.62799,-0.00264
360.4,10.4433,4.63161,-0.00263996
361,10.4615,4.629,-0.00263952
361.6,10.4794,4.62237,-0.00263649
362.2,10.4974,4.61287,-0.00262958
362.8,10.5157,4.61521,-0.00352362
363.4,10.5333,4.61212,-0.00396339
364,10.5515,4.60975,-0.00395982
364.6,10.5694,4.60581,-0.00395499
365.2,10.5874,4.61053,-0.00432086
365.8,10.6055,4.60811,-0.00508387
366.4,10.6238,4.60507,-0.0042741
367,10.6409,4.59964,-0.00428025
367.6,10.6595,4.60153,-0.00427635
368.2,10.6779,4.59672,-0.00426087
368.8,10.6956,4.59685,-0.00518093
369.4,10.7139,4.59312,-0.00525042
370,10.7319,4.59098,-0.00523406
370.6,10.75,4.59219,-0.00563424
371.2,10.7679,4.58914,-0.00560131
371.8,10.7861,4.58698,-0.00559993
372.4,10.8043,4.57609,-0.00560007
373,10.8224,4.5708,-0.00560043
373.6,10.8401,4.57116,-0.00559609
374.2,10.8584,4.57057,-0.00534433
374.8,10.8764,4.57053,-0.00527846
375.4,10.8947,4.56036,-0.00527064
376,10.9126,4.5609,-0.00526947
376.6,10.931,4.57058,-0.00526409
377.2,10.9493,4.56911,-0.00521878
377.8,10.9675,4.56427,-0.00629913
378.4,10.9853,4.55364,-0.00625253
379,11.0036,4.55104,-0.00626823
379.6,11.0215,4.54734,-0.00641296
380.2,11.0399,4.54592,-0.00658057
380.8,11.0576,4.54485,-0.00658974
381.4,11.076,4.54378,-0.00659003
382,11.094,4.53762,-0.00658999
382.6,11.1122,4.5341,-0.00658975
383.2,11.1303,4.53651,-0.00658747
383.8,11.1487,4.53416,-0.00657244
384.4,11.1666,4.53437,-0.00722732
385,11.1848,4.52973,-0.00793084
385.6,11.2031,4.52975,-0.007913
386.2,11.2212,4.52757,-0.00791027
386.8,11.2392,4.52118,-0.0079099
387.4,11.2578,4.52211,-0.00790749
388,11.2755,4.51927,-0.00784344
388.6,11.2937,4.51454,-0.00649828
389.2,11.3122,4.5108,-0.00658627
389.8,11.3303,4.50663,-0.00659022
390.4,11.3487,4.50253,-0.00659025
391,11.3667,4.50056,-0.00659222
391.6,11.385,4.49679,-0.00663213
392.2,11.4031,4.49737,-0.00897555
392.8,11.4215,4.4995,-0.00919937
393.4,11.4394,4.48745,-0.0092167
394,11.4579,4.49209,-0.00919439
394.6,11.476,4.49458,-0.0087175
395.2,11.4941,4.48315,-0.00789276
395.8,11.5124,4.48413,-0.00789967
396.4,11.5309,4.47493,-0.00790078
397,11.5491,4.47293,-0.00790592
397.6,11.5674,4.47087,-0.00791848
398.2,11.5853,4.45779,-0.0091652
398.8,11.6039,4.45119,-0.00921113
399.4,11.622,4.4517,-0.00921909
400,11.6403,4.45044,-0.0092199
400.6,11.6585,4.44299,-0.00921984
401.2,11.6768,4.4331,-0.0092201
401.8,11.695,4.43002,-0.00923964
402.4,11.7135,4.42644,-0.00986876
403,11.7316,4.42516,-0.0105459
403.6,11.7498,4.4246,-0.0105404
404.2,11.7683,4.41992,-0.01054
404.8,11.7866,4.41939,-0.01054
405.4,11.8048,4.41805,-0.0105369
406,11.8232,4.4103,-0.0104867
406.6,11.8415,4.40402,-0.011567
407.2,11.8599,4.40007,-0.0118459
407.8,11.8777,4.39154,-0.0118588
408.4,11.8965,4.39056,-0.0118631
409,11.9144,4.38747,-0.012342
409.6,11.9331,4.37677,-0.0128472
410.2,11.9514,4.37363,-0.0127964
410.8,11.9696,4.36946,-0.0115395
411.4,11.9881,4.36471,-0.0115364
412,12.0064,4.3658,-0.0115333
412.6,12.0245,4.35416,-0.0115616
413.2,12.0427,4.35386,-0.0118397
413.8,12.0615,4.35118,-0.0141741
414.4,12.0795,4.34059,-0.0163416
415,12.0983,4.34074,-0.0177896
415.6,12.1166,4.32835,-0.0159035
416.2,12.1349,4.3279,-0.014969
416.8,12.153,4.31706,-0.0136162
417.4,12.1715,4.31487,-0.0130849
418,12.1899,4.31315,-0.013066
418.6,12.2083,4.30618,-0.0130476
419.2,12.2265,4.30369,-0.0141247
419.8,12.245,4.30346,-0.0131301
420.4,12.2636,4.30111,-0.0130722
421,12.2811,4.29491,-0.0130718
421.6,12.3002,4.28818,-0.0130869
422.2,12.3188,4.26904,-0.0132157
422.8,12.3374,4.27123,-0.0143919
423.4,12.3556,4.27554,-0.0143895
424,12.3735,4.27307,-0.0143895
424.6,12.3922,4.2676,-0.0143836
425.2,12.4109,4.25581,-0.0143124
425.8,12.4288,4.24562,-0.0155014
426.4,12.4479,4.24668,-0.0156988
427,12.4666,4.24568,-0.0156996
427.6,12.4847,4.24643,-0.0156559
428.2,12.503,4.24007,-0.0168399
428.8,12.5214,4.22848,-0.0170062
429.4,12.5401,4.22299,-0.0170167
430,12.5584,4.2202,-0.0170027
430.6,12.5771,4.21837,-0.017705
431.2,12.5955,4.21752,-0.01838
431.8,12.6138,4.20781,-0.0188149
432.4,12.6324,4.20942,-0.0196648
433,12.651,4.21112,-0.0196556
433.6,12.6694,4.19924,-0.020243
434.2,12.6878,4.19212,-0.0209728
434.8,12.7063,4.18991,-0.0209526
435.4,12.7249,4.18924,-0.0222792
436,12.7433,4.18606,-0.0222891
436.6,12.7618,4.18156,-0.0222916
437.2,12.7803,4.18252,-0.0223064
437.8,12.799,4.17367,-0.0221405
438.4,12.8174,4.16466,-0.022273
439,12.8362,4.15711,-0.0222892
439.6,12.8544,4.155,-0.0223026
440.2,12.8732,4.14762,-0.0226509
440.8,12.8915,4.14517,-0.0236512
441.4,12.9101,4.13691,-0.0235504
442,12.9283,4.12948,-0.0247047
442.6,12.9469,4.12976,-0.0249199
443.2,12.9653,4.12205,-0.0249174
443.8,12.9839,4.11594,-0.0248689
444.4,13.0026,4.11047,-0.0260253
445,13.0209,4.09877,-0.0262202
445.6,13.0395,4.09194,-0.0261852
446.2,13.0587,4.09628,-0.0273651
446.8,13.0771,4.09321,-0.0275608
447.4,13.0958,4.08826,-0.02881
448,13.1137,4.08764,-0.0288649
448.6,13.1327,4.08489,-0.0289065
449.2,13.1513,4.07786,-0.0293175
449.8,13.1698,4.06421,-0.0304198
450.4,13.1885,4.05266,-0.0308961
451,13.2071,4.04208,-0.031726
451.6,13.2255,4.03634,-0.0317265
452.2,13.2442,4.03904,-0.0328431
452.8,13.2629,4.01812,-0.033043
453.4,13.2815,4.0088,-0.033272
454,13.3,3.99956,-0.0346613
454.6,13.3185,3.98804,-0.0351053
455.2,13.3371,3.97712,-0.0361112
455.8,13.3557,3.96559,-0.0370049
456.4,13.3744,3.95632,-0.0375846
457,13.393,3.9409,-0.0381821
457.6,13.4116,3.92775,-0.0397393
458.2,13.4302,3.91451,-0.0410844
458.8,13.4488,3.91257,-0.0417545
459.4,13.4674,3.90298,-0.0431552
460,13.486,3.89673,-0.04462
460.6,13.5048,3.88731,-0.0448462
461.2,13.5234,3.87285,-0.0462962
461.8,13.5419,3.86389,-0.046501
462.4,13.5606,3.85261,-0.0470135
463,13.5791,3.84417,-0.0483206
463.6,13.5979,3.83048,-0.0500341
464.2,13.6166,3.82079,-0.0519027
464.8,13.6351,3.80046,-0.0537663
465.4,13.6539,3.78841,-0.0552922
466,13.6724,3.78033,-0.0559599
466.6,13.6908,3.76308,-0.057479
467.2,13.7097,3.75323,-0.0593786
467.8,13.7281,3.73686,-0.0607218
468.4,13.7469,3.73242,-0.062583
469,13.7659,3.71221,-0.0647501
469.6,13.784,3.69725,-0.0672685
470.2,13.8027,3.68366,-0.0692227
470.8,13.8215,3.66729,-0.0711138
471.4,13.8402,3.65669,-0.0731821
472,13.8589,3.64844,-0.0753565
472.6,13.8776,3.63065,-0.0781197
473.2,13.8961,3.62687,-0.0810328
473.8,13.915,3.61602,-0.0843981
474.4,13.9334,3.59514,-0.0866043
475,13.9523,3.58159,-0.089684
475.6,13.9708,3.56428,-0.0929944
476.2,13.9895,3.54123,-0.0956569
476.8,14.0081,3.52498,-0.0987962
477.4,14.0268,3.51032,-0.102426
478,14.0453,3.49325,-0.106037
478.6,14.0645,3.47887,-0.10952
479.2,14.0828,3.48173,-0.112068
479.8,14.1019,3.48498,-0.114763
480.4,14.1205,3.4759,-0.11917
481,14.1393,3.46781,-0.1235
481.6,14.1579,3.4368,-0.128501
482.2,14.1768,3.40354,-0.134478
482.8,14.1953,3.38958,-0.140107
483.4,14.214,3.35545,-0.144459
484,14.2326,3.33545,-0.149867
484.6,14.2514,3.33563,-0.154932
485.2,14.2704,3.34121,-0.160955
485.8,14.2889,3.3449,-0.165576
486.4,14.308,3.35047,-0.172062
487,14.3267,3.3578,-0.177358
487.6,14.3454,3.36796,-0.184688
488.2,14.3642,3.34003,-0.190178
488.8,14.3829,3.29372,-0.197235
489.4,14.4016,3.29739,-0.204304
490,14.4207,3.31421,-0.213748
490.6,14.4391,3.32973,-0.22144
491.2,14.4582,3.28462,-0.229195
491.8,14.4768,3.28449,-0.236898
492.4,14.4957,3.30505,-0.245784
493,14.5151,3.35871,-0.256957
493.6,14.5339,3.41836,-0.266965
494.2,14.5529,3.46062,-0.277881
494.8,14.5717,3.47102,-0.287083
495.4,14.5906,3.48558,-0.299829
496,14.6094,3.4698,-0.310909
496.6,14.6283,3.48551,-0.325288
497.2,14.6475,3.54265,-0.337646
497.8,14.6664,3.59709,-0.354591
498.4,14.6853,3.6091,-0.368768
499,14.7042,3.62305,-0.38677
499.6,14.723,3.60596,-0.400709
500.2,14.7421,3.6285,-0.415941
500.8,14.7611,3.69147,-0.428311
501.4,14.7798,3.70969,-0.444824
502,14.7989,3.74258,-0.467069
502.6,14.818,3.78606,-0.493261
503.2,14.8369,3.77686,-0.518378
503.8,14.8559,3.7978,-0.540181
504.4,14.875,3.841,-0.562984
505,14.894,3.87656,-0.584618
505.6,14.9122,3.92578,-0.60899
506.2,14.9313,3.96549,-0.630625
506.8,14.951,3.99186,-0.657993
507.4,14.9699,3.9621,-0.681217
508,14.9886,3.96487,-0.712777
508.6,15.0079,4.00664,-0.739817
509.2,15.0273,4.0546,-0.773668
509.8,15.0459,4.07261,-0.799011
510.4,15.0648,4.0579,-0.833193
511,15.0833,4.04428,-0.860897
511.6,15.1027,3.99955,-0.8966
512.2,15.1211,3.94378,-0.925676
512.8,15.1401,3.89453,-0.960835
513.4,15.159,3.84175,-0.992762
514,15.1779,3.83963,-1.02666
514.6,15.1969,3.8383,-1.06049
515.2,15.2157,3.84073,-1.09368
515.8,15.2347,3.84343,-1.13047
516.4,15.2539,3.85556,-1.16477
517,15.2732,3.88185,-1.20455
517.6,15.292,3.92087,-1.23886
518.2,15.3109,3.91761,-1.28151
518.8,15.3299,3.93333,-1.31729
519.4,15.3493,3.95573,-1.36387
520,15.3682,3.98712,-1.40014
520.6,15.3872,4.00095,-1.44671
521.2,15.4063,4.00808,-1.48355
521.8,15.4256,4.03353,-1.53233
522.4,15.4447,4.03825,-1.57067
523,15.4637,4.06129,-1.61971
523.6,15.4826,4.08342,-1.66008
524.2,15.5019,4.08188,-1.70934
524.8,15.5208,4.07241,-1.7513
525.4,15.5398,4.05197,-1.79883
526,15.559,4.01514,-1.84347
526.6,15.5777,3.98089,-1.88933
527.2,15.5965,3.92919,-1.93596
527.8,15.6154,3.88142,-1.98024
528.4,15.6343,3.81414,-2.02768
529,15.653,3.73807,-2.06961
529.6,15.6719,3.64815,-2.11862
530.2,15.6907,3.54618,-2.1583
530.8,15.7093,3.44277,-2.20487
531.4,15.7282,3.3314,-2.24184
532,15.7463,3.20842,-2.28608
532.6,15.7652,3.07412,-2.32024
533.2,15.784,2.92951,-2.36148
533.8,15.8026,2.78483,-2.39397
534.4,15.821,2.62943,-2.42986
535,15.8394,2.47195,-2.46094
535.6,15.858,2.31477,-2.49293
536.2,15.8768,2.16135,-2.52281
536.8,15.8952,2.01565,-2.55053
537.4,15.9138,1.87415,-2.57934
538,15.9323,1.72668,-2.6022
538.6,15.9514,1.60029,-2.62842
539.2,15.9701,1.47637,-2.647
539.8,15.9887,1.36141,-2.66948
540.4,16.0074,1.25963,-2.68567
541,16.0264,1.16888,-2.70571
541.6,16.045,1.07613,-2.7195
542.2,16.0638,0.994945,-2.73553
542.8,16.0826,0.925519,-2.74734
543.4,16.1016,0.862229,-2.76116
544,16.1205,0.808209,-2.77213
544.6,16.1393,0.763044,-2.7837
545.2,16.1581,0.727199,-2.79331
545.8,16.1776,0.682093,-2.80288
546.4,16.1969,0.643114,-2.81155
547,16.2157,0.620827,-2.81913
547.6,16.2346,0.591325,-2.82688
548.2,16.2537,0.571265,-2.83366
548.8,16.2728,0.544913,-2.84095
549.4,16.292,0.523904,-2.84631
550,16.3112,0.512905,-2.85223
550.6,16.3303,0.502617,-2.85721
551.2,16.3497,0.487306,-2.86342
551.8,16.3685,0.480799,-2.86754
552.4,16.3876,0.460277,-2.87172
553,16.407,0.44883,-2.87645
553.6,16.4262,0.44882,-2.8804
554.2,16.4451,0.435583,-2.88457
554.8,16.4645,0.426118,-2.88817
555.4,16.4838,0.417625,-2.89157
556,16.5029,0.410688,-2.8946
556.6,16.5223,0.405869,-2.89681
557.2,16.5411,0.398055,-2.90047
557.8,16.5601,0.395818,-2.90413
558.4,16.5797,0.380574,-2.90771
559,16.5982,0.383273,-2.91059
559.6,16.6182,0.377129,-2.91235
560.2,16.6374,0.369775,-2.9142
560.8,16.6565,0.365216,-2.9168
561.4,16.676,0.357284,-2.91892
562,16.6946,0.352661,-2.92091
562.6,16.7144,0.343784,-2.92375
563.2,16.7337,0.342291,-2.92641
563.8,16.7529,0.335192,-2.92827
564.4,16.7719,0.335066,-2.92961
565,16.7916,0.325422,-2.93184
565.6,16.8106,0.320326,-2.93406
566.2,16.8295,0.316124,-2.93608
566.8,16.8488,0.318494,-2.93816
567.4,16.8684,0.304658,-2.94041
568,16.8874,0.297897,-2.94246
568.6,16.9068,0.293438,-2.94379
569.2,16.9261,0.288345,-2.94616
569.8,16.9459,0.402473,-2.9486
570.4,16.9652,0.505988,-2.94932
571,16.9844,0.455954,-2.94772
571.6,17.0034,0.390798,-2.94584
572.2,17.0225,0.340685,-2.94651
572.8,17.042,0.281679,-2.95124
573.4,17.061,0.240681,-2.95857
574,17.0803,0.223967,-2.96314
574.6,17.0994,0.208312,-2.96555
575.2,17.1185,0.180849,-2.96679
575.8,17.1379,0.152477,-2.96834
576.4,17.1573,0.126521,-2.96913
577,17.1764,0.104711,-2.97035
577.6,17.1958,0.100045,-2.9719
578.2,17.2148,0.0877068,-2.97373
578.8,17.2344,0.0661645,-2.9752
579.4,17.2531,0.0529633,-2.97613
580,17.2728,0.0340325,-2.97729
580.6,17.292,0.0265692,-2.9788
581.2,17.3113,0.0124962,-2.97989
581.8,17.3306,-0.00455168,-2.98065
582.4,17.3497,-0.0120093,-2.98205
583,17.3693,-0.0227912,-2.98376
583.6,17.3884,-0.0350948,-2.98567
584.2,17.4078,-0.049348,-2.98756
584.8,17.4271,-0.0662577,-2.98854
585.4,17.4464,-0.0888675,-2.98887
586,17.4657,-0.0944683,-2.98975
586.6,17.4849,-0.106564,-2.99026
587.2,17.5041,-0.118456,-2.99162
587.8,17.5235,-0.12875,-2.99306
588.4,17.5428,-0.135559,-2.99515
589,17.5622,-0.145124,-2.99682
589.6,17.5817,-0.159904,-2.99838
590.2,17.6009,-0.173568,-2.99814
590.8,17.6201,-0.178232,-2.99935
591.4,17.6395,-0.188832,-3.00031
592,17.6588,-0.189579,-3.00106
592.6,17.6783,-0.185809,-3.00263
593.2,17.6976,-0.179118,-3.00445
593.8,17.7173,-0.190185,-3.00633
594.4,17.7364,-0.194892,-3.0069
595,17.7556,-0.195034,-3.00802
595.6,17.7751,-0.203966,-3.01029
596.2,17.7944,-0.203568,-3.01207
596.8,17.8141,-0.20842,-3.01338
597.4,17.8332,-0.21119,-3.01402
598,17.8529,-0.210819,-3.01542
598.6,17.8722,-0.215092,-3.01663
599.2,17.8916,-0.214622,-3.01739
599.8,17.9108,-0.214882,-3.0185
600.4,17.9301,-0.216455,-3.02033
601,17.9496,-0.217215,-3.02134
601.6,17.9694,-0.208011,-3.02261
602.2,17.9888,-0.205724,-3.02365
602.8,18.0082,-0.205966,-3.0248
603.4,18.0275,-0.214542,-3.0254
604,18.0468,-0.238978,-3.02605
604.6,18.0661,-0.260208,-3.02682
605.2,18.0857,-0.284896,-3.02831
605.8,18.1051,-0.309415,-3.02895
606.4,18.1244,-0.331444,-3.02995
607,18.1438,-0.341214,-3.03153
607.6,18.1633,-0.357754,-3.03222
608.2,18.1826,-0.364953,-3.03298
608.8,18.202,-0.373176,-3.03472
609.4,18.2214,-0.373288,-3.03533
610,18.2411,-0.363037,-3.03646
610.6,18.2602,-0.355158,-3.03762
611.2,18.2798,-0.36016,-3.03826
611.8,18.2995,-0.357521,-3.03984
612.4,18.3189,-0.354608,-3.04032
613,18.3377,-0.349298,-3.0412
613.6,18.3581,-0.345594,-3.04283
614.2,18.3776,-0.34742,-3.04315
614.8,18.3971,-0.341676,-3.04427
615.4,18.4165,-0.339098,-3.04426
616,18.4358,-0.341633,-3.04475
616.6,18.4552,-0.344878,-3.0442
617.2,18.475,-0.358821,-3.0456
617.8,18.4943,-0.367466,-3.0461
618.4,18.5139,-0.372896,-3.0473
619,18.5334,-0.382659,-3.04885
619.6,18.5529,-0.405964,-3.04922
620.2,18.5723,-0.422908,-3.05038
620.8,18.5918,-0.434933,-3.05035
621.4,18.6113,-0.447132,-3.05072
622,18.6308,-0.451838,-3.05156
622.6,18.6501,-0.443688,-3.05316
623.2,18.6701,-0.426684,-3.0555
623.8,18.6892,-0.416318,-3.05617
624.4,18.7093,-0.409142,-3.05726
625,18.7284,-0.393968,-3.05611
625.6,18.7481,-0.389852,-3.05687
626.2,18.7677,-0.384829,-3.05624
626.8,18.7873,-0.373396,-3.0578
627.4,18.8069,-0.358541,-3.05778
628,18.8264,-0.341408,-3.05908
628.6,18.8462,-0.333599,-3.05911
629.2,18.8655,-0.319318,-3.06005
629.8,18.8856,-0.325906,-3.06057
630.4,18.9051,-0.334428,-3.06237
631,18.9244,-0.330645,-3.06321
631.6,18.9439,-0.348308,-3.06394
632.2,18.9633,-0.361088,-3.06509
632.8,18.9829,-0.361627,-3.06543
633.4,19.0019,-0.370997,-3.06634
634,19.0222,-0.376438,-3.06676
634.6,19.0417,-0.383187,-3.06678
635.2,19.0613,-0.388283,-3.06766
635.8,19.0807,-0.397217,-3.06828
636.4,19.1002,-0.400616,-3.06899
637,19.1199,-0.405711,-3.06961
637.6,19.1393,-0.410298,-3.07023
638.2,19.1591,-0.413287,-3.07102
638.8,19.1787,-0.415433,-3.0719
639.4,19.1981,-0.417045,-3.07256
640,19.2177,-0.424827,-3.07377
640.6,19.2377,-0.420982,-3.07413
641.2,19.2572,-0.419738,-3.07483
641.8,19.2768,-0.422888,-3.07546
642.4,19.2962,-0.410893,-3.07411
643,19.3159,-0.415967,-3.07555
643.6,19.3352,-0.418006,-3.07557
644.2,19.3548,-0.418226,-3.07725
644.8,19.3747,-0.419221,-3.07821
645.4,19.3942,-0.428453,-3.07833
646,19.4137,-0.434607,-3.07983
646.6,19.4334,-0.434624,-3.07996
647.2,19.453,-0.44214,-3.07971
647.8,19.4727,-0.44129,-3.07974
648.4,19.492,-0.448464,-3.08
649,19.5119,-0.448383,-3.0811
649.6,19.5314,-0.454354,-3.08105
650.2,19.551,-0.464054,-3.08181
650.8,19.5708,-0.471518,-3.08234
651.4,19.5902,-0.485606,-3.08233
652,19.6097,-0.49441,-3.08327
652.6,19.6293,-0.493184,-3.08368
653.2,19.6481,-0.504971,-3.08374
653.8,19.6685,-0.522395,-3.08516
654.4,19.6881,-0.529418,-3.08516
655,19.7074,-0.545653,-3.08656
655.6,19.7266,-0.560723,-3.08683
656.2,19.7466,-0.581535,-3.08795
656.8,19.7662,-0.595142,-3.08849
657.4,19.7856,-0.603156,-3.08846
658,19.8052,-0.615199,-3.08993
658.6,19.825,-0.629514,-3.08997
659.2,19.8443,-0.641387,-3.0907
659.8,19.8642,-0.664298,-3.09128
660.4,19.8836,-0.664998,-3.0913
661,19.903,-0.671909,-3.09153
661.6,19.9225,-0.675381,-3.09227
662.2,19.9423,-0.693592,-3.09226
662.8,19.9619,-0.699649,-3.09227
663.4,19.9816,-0.70941,-3.09251
664,20.0011,-0.708808,-3.09363
664.6,20.0209,-0.710185,-3.09376
665.2,20.0404,-0.700559,-3.09506
665.8,20.0602,-0.690941,-3.09486
666.4,20.0797,-0.689829,-3.09451
667,20.0995,-0.689466,-3.09498
667.6,20.119,-0.685124,-3.09553
668.2,20.1383,-0.683493,-3.0963
668.8,20.1585,-0.674357,-3.09632
669.4,20.1779,-0.679875,-3.09632
670,20.1975,-0.683625,-3.09671
670.6,20.2173,-0.684937,-3.09762
671.2,20.2367,-0.67969,-3.09795
671.8,20.2564,-0.686216,-3.09896
672.4,20.2754,-0.692823,-3.09889
673,20.2948,-0.696329,-3.10026
673.6,20.3154,-0.690437,-3.10029
674.2,20.3349,-0.698149,-3.10107
674.8,20.3545,-0.711925,-3.10159
675.4,20.3742,-0.705536,-3.10159
676,20.3939,-0.71749,-3.10161
676.6,20.4127,-0.728564,-3.10216
677.2,20.4329,-0.735364,-3.10292
677.8,20.4524,-0.742622,-3.10319
678.4,20.4724,-0.748968,-3.10441
679,20.4916,-0.760476,-3.10459
679.6,20.5114,-0.763525,-3.10571
680.2,20.5307,-0.774225,-3.10583
680.8,20.5508,-0.78228,-3.10725
681.4,20.5699,-0.789856,-3.10628
682,20.5896,-0.805397,-3.10586
682.6,20.6093,-0.808262,-3.10643
683.2,20.6288,-0.811254,-3.10716
683.8,20.6487,-0.806778,-3.10719
684.4,20.6676,-0.814548,-3.10723
685,20.6881,-0.82562,-3.10851
685.6,20.7075,-0.826856,-3.10849
686.2,20.7271,-0.833522,-3.10918
686.8,20.7469,-0.844192,-3.10982
687.4,20.7663,-0.857742,-3.10982
688,20.7862,-0.87219,-3.10982
688.6,20.8058,-0.877355,-3.10977
689.2,20.8254,-0.890709,-3.11112
689.8,20.8448,-0.901828,-3.11104
690.4,20.8648,-0.913231,-3.11244
691,20.8842,-0.922611,-3.11249
691.6,20.903,-0.932638,-3.11136
692.2,20.923,-0.940958,-3.11228
692.8,20.9432,-0.960542,-3.11244
693.4,20.9627,-0.975146,-3.11246
694,20.9822,-0.979301,-3.11274
694.6,21.002,-1.00426,-3.11382
695.2,21.0217,-1.02228,-3.11377
695.8,21.0413,-1.03501,-3.11369
696.4,21.0609,-1.04264,-3.11498
697,21.0805,-1.05463,-3.115
697.6,21.1,-1.07343,-3.11627
698.2,21.1197,-1.07628,-3.1164
698.8,21.1395,-1.08263,-3.11701
699.4,21.1591,-1.0938,-3.1178
700,21.1789,-1.10316,-3.11835
700.6,21.1987,-1.11555,-3.11913
701.2,21.2182,-1.12196,-3.11915
701.8,21.2379,-1.13017,-3.11915
702.4,21.2574,-1.13997,-3.11915
703,21.2772,-1.14063,-3.1195
703.6,21.2968,-1.15493,-3.12046
704.2,21.3165,-1.16783,-3.12076
704.8,21.3363,-1.17823,-3.12179
705.4,21.3561,-1.18405,-3.12153
706,21.3754,-1.19239,-3.12067
706.6,21.3952,-1.1995,-3.12182
707.2,21.4149,-1.21244,-3.12175
707.8,21.4348,-1.2277,-3.12303
708.4,21.4544,-1.235,-3.1231
709,21.474,-1.23818,-3.12302
709.6,21.4934,-1.25526,-3.12439
710.2,21.5134,-1.26389,-3.12442
710.8,21.5332,-1.2679,-3.12442
711.4,21.5528,-1.27802,-3.12445
712,21.5726,-1.29001,-3.12497
712.6,21.5922,-1.29857,-3.1258
713.2,21.6118,-1.30578,-3.1246
713.8,21.6318,-1.3103,-3.12434
714.4,21.6514,-1.31834,-3.12566
715,21.6711,-1.32328,-3.12573
715.6,21.691,-1.3316,-3.12649
716.2,21.7108,-1.33732,-3.12702
716.8,21.7305,-1.34647,-3.12704
717.4,21.7505,-1.35446,-3.12774
718,21.7697,-1.3652,-3.12835
718.6,21.79,-1.36895,-3.12837
719.2,21.8095,-1.38155,-3.12837
719.8,21.8294,-1.39056,-3.12839
720.4,21.8492,-1.39807,-3.12978
721,21.869,-1.40131,-3.1297
721.6,21.8887,-1.40654,-3.13132
722.2,21.9085,-1.41573,-3.13125
722.8,21.9283,-1.42417,-3.1326
723.4,21.948,-1.43241,-3.13254
724,21.9679,-1.43689,-3.13252
724.6,21.9875,-1.44084,-3.13358
725.2,22.0075,-1.44199,-3.1339
725.8,22.0272,-1.45617,-3.13306
726.4,22.0472,-1.46019,-3.13287
727,22.0669,-1.46532,-3.13287
727.6,22.087,-1.47068,-3.1342
728.2,22.1066,-1.48273,-3.13419
728.8,22.1262,-1.49216,-3.13419
729.4,22.1456,-1.49528,-3.13417
730,22.1655,-1.501,-3.1351
730.6,22.1856,-1.50359,-3.13518
731.2,22.2058,-1.50368,-3.13543
731.8,22.2248,-1.51448,-3.13653
732.4,22.2446,-1.51784,-3.1365
733,22.2649,-1.51381,-3.13697
733.6,22.2844,-1.51641,-3.13795
734.2,22.3047,-1.53097,-3.13793
734.8,22.3248,-1.5304,-3.13841
735.4,22.3443,-1.53464,-3.13927
736,22.3643,-1.54109,-3.13923
736.6,22.3842,-1.55379,-3.13792
737.2,22.4041,-1.56102,-3.13794
737.8,22.4239,-1.56922,-3.13862
738.4,22.4439,-1.57231,-3.13924
739,22.4635,-1.57146,-3.13925
739.6,22.4834,-1.57717,-3.13961
740.2,22.5032,-1.58636,-3.14059
740.8,22.523,-1.60055,-3.14055
741.4,22.5431,-1.60222,-3.14056
742,22.5628,-1.60266,-3.13921
742.6,22.5827,-1.60812,-3.14035
743.2,22.6025,-1.61557,-3.14055
743.8,22.6222,-1.61954,-3.14051
744.4,22.6422,-1.62041,-3.14189
745,22.6623,-1.62872,-3.14316
745.6,22.6818,-1.63095,-3.14424
746.2,22.7018,-1.63608,-3.1432
746.8,22.7217,-1.63673,-3.14309
747.4,22.7415,-1.64761,-3.14306
748,22.7613,-1.66227,-3.14228
748.6,22.7812,-1.67624,-3.14196
749.2,22.8012,-1.68326,-3.14325
749.8,22.8212,-1.68777,-3.14397
750.4,22.8409,-1.70253,-3.14449
751,22.8609,-1.70878,-3.1445
751.6,22.8807,-1.7144,-3.14524
752.2,22.9008,-1.72392,-3.1458
752.8,22.9203,-1.72949,-3.14693
753.4,22.9403,-1.74059,-3.14713
754,22.9602,-1.75783,-3.14782
754.6,22.9802,-1.75661,-3.14843
755.2,22.9999,-1.76242,-3.14835
755.8,23.0201,-1.77545,-3.14707
756.4,23.0397,-1.79008,-3.14711
757,23.0598,-1.80088,-3.14805
757.6,23.0799,-1.81413,-3.14845
758.2,23.0996,-1.82015,-3.14846
758.8,23.1196,-1.82827,-3.14852
759.4,23.1396,-1.83457,-3.14748
760,23.1594,-1.85094,-3.14854
760.6,23.1792,-1.85193,-3.14883
761.2,23.1992,-1.85951,-3.14879
761.8,23.2192,-1.86766,-3.14879
762.4,23.239,-1.88991,-3.1488
763,23.2593,-1.89606,-3.14889
763.6,23.2789,-1.90093,-3.15015
764.2,23.2987,-1.91675,-3.1501
764.8,23.3187,-1.93123,-3.15096
765.4,23.3386,-1.94447,-3.15105
766,23.3585,-1.95566,-3.15109
766.6,23.3785,-1.97209,-3.15163
767.2,23.3985,-1.98974,-3.15131
767.8,23.4182,-2.00712,-3.15108
768.4,23.4383,-2.01728,-3.15219
769,23.4583,-2.02847,-3.15241
769.6,23.478,-2.04193,-3.15241
770.2,23.498,-2.0507,-3.15242
770.8,23.5179,-2.06854,-3.1527
771.4,23.538,-2.07735,-3.15596
772,23.5578,-2.08748,-3.15916
772.6,23.5779,-2.08722,-3.15986
773.2,23.5978,-2.10632,-3.15702
773.8,23.6177,-2.11524,-3.15408
774.4,23.6378,-2.12053,-3.15265
775,23.6569,-2.12311,-3.15133
775.6,23.6776,-2.13844,-3.15267
776.2,23.6976,-2.14798,-3.15399
776.8,23.7174,-2.15055,-3.15404
777.4,23.7375,-2.14886,-3.15386
778,23.7575,-2.16409,-3.15394
778.6,23.7775,-2.18133,-3.15394
779.2,23.7977,-2.17655,-3.15501
779.8,23.8177,-2.17516,-3.15527
780.4,23.837,-2.18438,-3.15527
781,23.8574,-2.19038,-3.15565
781.6,23.8774,-2.19543,-3.15658
782.2,23.8969,-2.19722,-3.15659
782.8,23.9175,-2.20866,-3.15658
783.4,23.9375,-2.21179,-3.15724
784,23.9575,-2.2169,-3.15756
784.6,23.9776,-2.2131,-3.15829
785.2,23.9979,-2.21636,-3.15888
785.8,24.0178,-2.21811,-3.15889
786.4,24.0377,-2.22304,-3.15888
787,24.0574,-2.2304,-3.15993
787.6,24.0777,-2.23885,-3.15943
788.2,24.0978,-2.24307,-3.15891
788.8,24.1175,-2.25205,-3.15889
789.4,24.1379,-2.24988,-3.16026
790,24.1577,-2.25655,-3.16021