File: 01_Data/Neoprene_SCBA_Face_Seal/STA/N2/10K_min/Neoprene_SCBA_Face_Seal_STA_N2_10KData_250912_R2.csv
Temp./C,Time/min,DSC/(mW/mg),Mass loss/mg
40.0,0.0,0.751762,-0.00698097
40.6,0.0827312,0.766193,-0.0084193
41.2,0.162424,0.772161,-0.00835703
41.8,0.241756,0.796501,-0.00704547
42.4,0.32279,0.80576,-0.00825464
43,0.400214,0.822333,-0.00912141
43.6,0.475683,0.835512,-0.00875163
44.2,0.554188,0.848572,-0.00760234
44.8,0.629616,0.857606,-0.00842429
45.4,0.702578,0.878311,-0.00834389
46,0.777884,0.884574,-0.00745734
46.6,0.852162,0.897071,-0.00756494
47.2,0.924118,0.909909,-0.00770328
47.8,0.99658,0.920578,-0.00722801
48.4,1.06858,0.926309,-0.00747627
49,1.13913,0.94452,-0.0075585
49.6,1.21255,0.954037,-0.00826735
50.2,1.28113,0.964242,-0.00868553
50.8,1.35099,0.97025,-0.00747599
51.4,1.4221,0.985882,-0.00745192
52,1.49117,0.996883,-0.00745049
52.6,1.56016,1.00943,-0.00749432
53.2,1.6284,1.0174,-0.00744906
53.8,1.69826,1.02989,-0.00713842
54.4,1.76543,1.04855,-0.00873455
55,1.83157,1.0596,-0.00876623
55.6,1.90025,1.07578,-0.00850289
56.2,1.96603,1.09785,-0.00865831
56.8,2.03467,1.1203,-0.00801926
57.4,2.10106,1.14533,-0.00825606
58,2.16598,1.16356,-0.00856959
58.6,2.23091,1.17669,-0.00738865
59.2,2.29545,1.18337,-0.00864808
59.8,2.36003,1.16065,-0.00834492
60.4,2.42591,1.14801,-0.010001
61,2.4908,1.14052,-0.00850458
61.6,2.55416,1.13725,-0.00867192
62.2,2.61729,1.12792,-0.00938967
62.8,2.68187,1.12896,-0.00981302
63.4,2.74577,1.13808,-0.00841525
64,2.80701,1.13772,-0.00868006
64.6,2.87076,1.14781,-0.00868754
65.2,2.93475,1.15487,-0.00931997
65.8,2.99844,1.1573,-0.00999777
66.4,3.06148,1.16556,-0.0100211
67,3.12029,1.1694,-0.0101976
67.6,3.18544,1.16914,-0.0110865
68.2,3.24697,1.17383,-0.0110258
68.8,3.31014,1.18646,-0.0113527
69.4,3.36752,1.18949,-0.0113135
70,3.4331,1.19845,-0.0117919
70.6,3.49402,1.20721,-0.0113134
71.2,3.5554,1.2085,-0.0121613
71.8,3.61807,1.21645,-0.0113678
72.4,3.6793,1.21819,-0.0119371
73,3.74098,1.22281,-0.0126317
73.6,3.80305,1.22658,-0.0121614
74.2,3.86326,1.23607,-0.0126302
74.8,3.92385,1.22928,-0.0126766
75.4,3.98473,1.2406,-0.0124731
76,4.04692,1.24208,-0.0126373
76.6,4.1078,1.2481,-0.0126338
77.2,4.16861,1.25868,-0.0126294
77.8,4.22922,1.253,-0.0125994
78.4,4.28888,1.25927,-0.0126241
79,4.35126,1.26609,-0.0139483
79.6,4.41195,1.2705,-0.0138568
80.2,4.47141,1.28177,-0.013947
80.8,4.5322,1.28427,-0.0126236
81.4,4.59254,1.27951,-0.012971
82,4.65315,1.29104,-0.0139124
82.6,4.71334,1.29305,-0.0139452
83.2,4.77225,1.29163,-0.013949
83.8,4.83268,1.29436,-0.0137428
84.4,4.89231,1.29826,-0.0149365
85,4.95281,1.30487,-0.0140845
85.6,5.01219,1.29596,-0.0152603
86.2,5.0715,1.29804,-0.015264
86.8,5.13116,1.30257,-0.0139412
87.4,5.18992,1.29606,-0.0139741
88,5.2498,1.30244,-0.013955
88.6,5.30811,1.30613,-0.0152699
89.2,5.36853,1.31213,-0.0165588
89.8,5.42701,1.315,-0.0152646
90.4,5.48664,1.31402,-0.01526
91,5.54593,1.31939,-0.0152612
91.6,5.60549,1.31846,-0.0153309
92.2,5.66368,1.32067,-0.0152899
92.8,5.72302,1.32425,-0.0152964
93.4,5.78091,1.32753,-0.0152795
94,5.83875,1.32443,-0.016172
94.6,5.89747,1.33759,-0.0152715
95.2,5.95575,1.33224,-0.0140848
95.8,6.01473,1.33794,-0.0148491
96.4,6.07248,1.32809,-0.0139408
97,6.13032,1.33117,-0.0152951
97.6,6.18886,1.33614,-0.0152607
98.2,6.24724,1.33355,-0.0139479
98.8,6.30482,1.33861,-0.0152081
99.4,6.36487,1.33515,-0.0159203
100,6.42167,1.33229,-0.0159661
100.6,6.47963,1.33,-0.0159298
101.2,6.53515,1.32409,-0.01593
101.8,6.59593,1.32421,-0.0147648
102.4,6.65203,1.32953,-0.0155236
103,6.71034,1.32812,-0.0145958
103.6,6.76839,1.33425,-0.0159249
104.2,6.82571,1.3291,-0.0159028
104.8,6.88403,1.32413,-0.0157555
105.4,6.94072,1.33003,-0.01592
106,6.99875,1.33204,-0.0159198
106.6,7.05601,1.33823,-0.0168085
107.2,7.11373,1.33847,-0.0159315
107.8,7.17151,1.33433,-0.015925
108.4,7.23058,1.33572,-0.0158667
109,7.28731,1.33905,-0.01592
109.6,7.3454,1.33927,-0.0159217
110.2,7.40266,1.34128,-0.0172868
110.8,7.46027,1.34581,-0.015921
111.4,7.51778,1.34588,-0.01592
112,7.57581,1.34014,-0.0153931
112.6,7.6331,1.35085,-0.0159264
113.2,7.69007,1.34859,-0.017239
113.8,7.74936,1.34644,-0.0162567
114.4,7.80526,1.35433,-0.0159111
115,7.86237,1.35488,-0.0172169
115.6,7.92119,1.35543,-0.0182947
116.2,7.97901,1.35741,-0.017802
116.8,8.03448,1.35818,-0.0169097
117.4,8.09335,1.36053,-0.0171205
118,8.15039,1.3569,-0.0170349
118.6,8.20871,1.35478,-0.0159192
119.2,8.26677,1.35585,-0.0159257
119.8,8.3229,1.36365,-0.01593
120.4,8.38064,1.36388,-0.0159301
121,8.43914,1.36226,-0.0160001
121.6,8.49252,1.36215,-0.0172695
122.2,8.55182,1.36326,-0.0185601
122.8,8.60988,1.3598,-0.0185602
123.4,8.66788,1.36339,-0.0172404
124,8.72556,1.36646,-0.0185495
124.6,8.78159,1.36043,-0.0172416
125.2,8.84025,1.36254,-0.01724
125.8,8.89449,1.35765,-0.0172382
126.4,8.95445,1.36331,-0.0172236
127,9.01142,1.36859,-0.01724
127.6,9.07023,1.37346,-0.01724
128.2,9.12655,1.3764,-0.01724
128.8,9.18301,1.37472,-0.0173138
129.4,9.24147,1.38502,-0.0171919
130,9.29788,1.38022,-0.01724
130.6,9.35331,1.38366,-0.0163394
131.2,9.41331,1.38837,-0.0169545
131.8,9.46767,1.3837,-0.0169129
132.4,9.5275,1.38818,-0.0175567
133,9.58426,1.39105,-0.0178991
133.6,9.64173,1.39881,-0.0192652
134.2,9.69874,1.38993,-0.0179001
134.8,9.75495,1.39915,-0.0179
135.4,9.81173,1.39582,-0.0179878
136,9.86964,1.39826,-0.0178753
136.6,9.92605,1.39355,-0.0179
137.2,9.98347,1.40201,-0.0175621
137.8,10.0407,1.39875,-0.0169099
138.4,10.0962,1.40011,-0.01691
139,10.153,1.40231,-0.0169612
139.6,10.2117,1.40012,-0.0165851
140.2,10.2671,1.4024,-0.0179026
140.8,10.3251,1.40308,-0.0165807
141.4,10.3823,1.40761,-0.016576
142,10.4391,1.4151,-0.0178991
142.6,10.4954,1.39981,-0.0178997
143.2,10.5519,1.40541,-0.0165063
143.8,10.6085,1.41504,-0.0165813
144.4,10.6655,1.41704,-0.0159288
145,10.7201,1.41131,-0.0165739
145.6,10.7791,1.41865,-0.01658
146.2,10.8354,1.41928,-0.016581
146.8,10.891,1.41458,-0.0179444
147.4,10.9482,1.41795,-0.0179
148,11.0051,1.42067,-0.0179579
148.6,11.0625,1.41957,-0.0169218
149.2,11.1182,1.41625,-0.0179064
149.8,11.1753,1.41409,-0.0167917
150.4,11.2314,1.4177,-0.0165801
151,11.2886,1.41819,-0.01658
151.6,11.3444,1.41855,-0.0165796
152.2,11.401,1.41471,-0.0177851
152.8,11.4574,1.42308,-0.0179
153.4,11.5144,1.42739,-0.017781
154,11.5704,1.43136,-0.0165795
154.6,11.628,1.42845,-0.0165802
155.2,11.6815,1.42679,-0.0178731
155.8,11.7399,1.43521,-0.0165892
156.4,11.7973,1.43115,-0.0165794
157,11.8545,1.43229,-0.0178894
157.6,11.9106,1.4347,-0.0178999
158.2,11.9672,1.43971,-0.0178964
158.8,12.0231,1.4381,-0.0172075
159.4,12.0788,1.44015,-0.01593
160,12.1365,1.44794,-0.0159304
160.6,12.1925,1.44822,-0.0172456
161.2,12.2493,1.44323,-0.0172402
161.8,12.3046,1.44518,-0.0158508
162.4,12.3627,1.44841,-0.01592
163,12.4175,1.44826,-0.0159232
163.6,12.4748,1.44754,-0.0175927
164.2,12.5314,1.44782,-0.01757
164.8,12.5878,1.44274,-0.0175702
165.4,12.6444,1.4525,-0.0162595
166,12.7006,1.4521,-0.0173349
166.6,12.7581,1.44744,-0.01625
167.2,12.8137,1.45162,-0.0162496
167.8,12.8707,1.45278,-0.0174727
168.4,12.9265,1.45478,-0.01757
169,12.9844,1.45296,-0.01757
169.6,13.0398,1.46251,-0.0175301
170.2,13.0963,1.45659,-0.0188912
170.8,13.1536,1.45899,-0.0177744
171.4,13.2086,1.45899,-0.0175703
172,13.2635,1.45682,-0.0188648
172.6,13.3226,1.45823,-0.0188799
173.2,13.3787,1.46388,-0.01888
173.8,13.4355,1.46577,-0.0188606
174.4,13.4913,1.46541,-0.0178993
175,13.5475,1.47184,-0.0178786
175.6,13.6037,1.46694,-0.0192201
176.2,13.6613,1.4711,-0.01922
176.8,13.7168,1.47829,-0.0192198
177.4,13.7735,1.48491,-0.0199965
178,13.83,1.48684,-0.0218482
178.6,13.8868,1.48307,-0.0219022
179.2,13.9427,1.48029,-0.0205401
179.8,14.0002,1.48869,-0.02054
180.4,14.0554,1.47922,-0.02054
181,14.1129,1.48461,-0.0205821
181.6,14.1694,1.4839,-0.0192187
182.2,14.2263,1.49034,-0.020165
182.8,14.2825,1.48848,-0.0218593
183.4,14.3382,1.49309,-0.02186
184,14.3945,1.49947,-0.0217283
184.6,14.4509,1.50037,-0.0218501
185.2,14.5062,1.50081,-0.02185
185.8,14.5643,1.50661,-0.02185
186.4,14.6204,1.49955,-0.0218743
187,14.6778,1.50371,-0.0238299
187.6,14.7331,1.50944,-0.02383
188.2,14.7904,1.50464,-0.02383
188.8,14.847,1.50777,-0.02383
189.4,14.903,1.5017,-0.0238282
190,14.959,1.50066,-0.0244864
190.6,15.0159,1.51034,-0.0244871
191.2,15.0723,1.51173,-0.0258056
191.8,15.1278,1.50147,-0.02581
192.4,15.1845,1.51088,-0.02581
193,15.2415,1.50402,-0.02581
193.6,15.2956,1.51573,-0.02581
194.2,15.3542,1.50709,-0.0268623
194.8,15.4111,1.50738,-0.0258061
195.4,15.4673,1.50997,-0.02581
196,15.5238,1.50645,-0.0272221
196.6,15.5811,1.51227,-0.02713
197.2,15.637,1.5167,-0.0271402
197.8,15.6923,1.5098,-0.0294285
198.4,15.7502,1.51119,-0.02942
199,15.8058,1.507,-0.029603
199.6,15.863,1.51179,-0.0307405
200.2,15.9186,1.51463,-0.03074
200.8,15.9752,1.51166,-0.03074
201.4,16.0308,1.51989,-0.03074
202,16.088,1.51675,-0.0307394
202.6,16.1454,1.5125,-0.0310698
203.2,16.2015,1.51499,-0.0324591
203.8,16.2562,1.51736,-0.0323859
204.4,16.3141,1.52224,-0.0336094
205,16.3713,1.51911,-0.0350298
205.6,16.4247,1.52061,-0.03503
206.2,16.4826,1.5197,-0.0346938
206.8,16.5398,1.52211,-0.0343726
207.4,16.5956,1.52245,-0.035689
208,16.6529,1.51782,-0.0356867
208.6,16.7095,1.52303,-0.036981
209.2,16.7647,1.51932,-0.0383225
209.8,16.8218,1.5256,-0.0383006
210.4,16.8786,1.52653,-0.0393008
211,16.9348,1.52015,-0.0392954
211.6,16.9918,1.52673,-0.0392433
212.2,17.0473,1.52684,-0.0393001
212.8,17.1039,1.52419,-0.0419337
213.4,17.1601,1.52288,-0.04194
214,17.2182,1.52953,-0.0419403
214.6,17.2731,1.52978,-0.0425866
215.2,17.3298,1.53516,-0.0439243
215.8,17.3864,1.53104,-0.0442142
216.4,17.4434,1.52515,-0.0452339
217,17.4995,1.52824,-0.0452971
217.6,17.5555,1.54329,-0.0472082
218.2,17.6119,1.53785,-0.0472056
218.8,17.6695,1.53723,-0.0479109
219.4,17.725,1.53558,-0.048516
220,17.7819,1.53715,-0.0498506
220.6,17.8392,1.53924,-0.0498371
221.2,17.8946,1.54388,-0.0511695
221.8,17.9517,1.54605,-0.0521344
222.4,18.0087,1.53758,-0.0524817
223,18.0643,1.55317,-0.0531942
223.6,18.1208,1.54281,-0.0544494
224.2,18.1778,1.54189,-0.0544544
224.8,18.2341,1.53985,-0.0571397
225.4,18.2891,1.54181,-0.0584802
226,18.3466,1.54211,-0.058429
226.6,18.4019,1.54434,-0.0597264
227.2,18.4596,1.55077,-0.0610449
227.8,18.5161,1.54101,-0.0623898
228.4,18.5715,1.53803,-0.0623813
229,18.628,1.53338,-0.0646526
229.6,18.6847,1.53357,-0.0659814
230.2,18.7421,1.54003,-0.0673164
230.8,18.7981,1.5395,-0.0686203
231.4,18.8544,1.54743,-0.069936
232,18.9124,1.53476,-0.0712597
232.6,18.9686,1.5417,-0.0725693
233.2,19.025,1.54153,-0.072591
233.8,19.0814,1.53978,-0.0738909
234.4,19.1383,1.54164,-0.0751973
235,19.1951,1.53916,-0.0765159
235.6,19.2511,1.53763,-0.0781985
236.2,19.3072,1.54071,-0.0794474
236.8,19.3642,1.54126,-0.0819285
237.4,19.4214,1.537,-0.0835547
238,19.4783,1.54121,-0.0848695
238.6,19.5344,1.54286,-0.0862189
239.2,19.5905,1.54251,-0.0874801
239.8,19.6475,1.5417,-0.0888194
240.4,19.7046,1.54367,-0.0903527
241,19.7613,1.54291,-0.0918917
241.6,19.818,1.5449,-0.0955199
242.2,19.8752,1.53964,-0.0967452
242.8,19.9311,1.54827,-0.0995831
243.4,19.9887,1.54496,-0.101143
244,20.044,1.53927,-0.101228
244.6,20.1018,1.53882,-0.103901
245.2,20.1586,1.54149,-0.105433
245.8,20.2155,1.53747,-0.107954
246.4,20.2714,1.5332,-0.109689
247,20.3286,1.52958,-0.110764
247.6,20.3849,1.52545,-0.113572
248.2,20.4419,1.52969,-0.1151
248.8,20.4979,1.52185,-0.1177
249.4,20.5555,1.52977,-0.119758
250,20.6111,1.52545,-0.121752
250.6,20.6688,1.53096,-0.124386
251.2,20.7248,1.53054,-0.125065
251.8,20.7818,1.53184,-0.127302
252.4,20.8358,1.51862,-0.129489
253,20.8951,1.51999,-0.130777
253.6,20.9518,1.52171,-0.133893
254.2,21.0088,1.51604,-0.13622
254.8,21.0669,1.51902,-0.138842
255.4,21.1229,1.52182,-0.140585
256,21.1779,1.51007,-0.14317
256.6,21.235,1.51289,-0.14447
257.2,21.2932,1.51824,-0.146408
257.8,21.3498,1.50929,-0.149371
258.4,21.4058,1.50998,-0.152047
259,21.4628,1.51089,-0.154905
259.6,21.5196,1.50538,-0.157578
260.2,21.5777,1.5015,-0.159188
260.8,21.6341,1.50915,-0.161901
261.4,21.6908,1.49922,-0.164767
262,21.7485,1.50683,-0.167754
262.6,21.8049,1.50092,-0.169732
263.2,21.8614,1.49446,-0.172214
263.8,21.9188,1.49648,-0.173789
264.4,21.975,1.49422,-0.176424
265,22.0322,1.48511,-0.178066
265.6,22.0887,1.48367,-0.18257
266.2,22.1457,1.48025,-0.185343
266.8,22.2032,1.47784,-0.187345
267.4,22.2587,1.47065,-0.1898
268,22.3163,1.47203,-0.192755
268.6,22.3732,1.47332,-0.194718
269.2,22.4303,1.46781,-0.197365
269.8,22.4876,1.46487,-0.200476
270.4,22.5433,1.46113,-0.203154
271,22.5999,1.46296,-0.204798
271.6,22.6569,1.46111,-0.20729
272.2,22.7149,1.46156,-0.210255
272.8,22.771,1.45145,-0.214975
273.4,22.8284,1.44816,-0.216276
274,22.885,1.44236,-0.218289
274.6,22.9416,1.44494,-0.221457
275.2,22.9987,1.43448,-0.222783
275.8,23.0556,1.4295,-0.225771
276.4,23.1128,1.42635,-0.227138
277,23.1697,1.43162,-0.23022
277.6,23.2269,1.41006,-0.233064
278.2,23.2846,1.41712,-0.235091
278.8,23.341,1.4166,-0.237306
279.4,23.3977,1.40418,-0.239653
280,23.4545,1.39543,-0.243693
280.6,23.5125,1.39937,-0.245821
281.2,23.5689,1.39858,-0.245958
281.8,23.626,1.3997,-0.24876
282.4,23.6832,1.3924,-0.252121
283,23.7403,1.37891,-0.255265
283.6,23.7973,1.37661,-0.25767
284.2,23.855,1.36901,-0.259664
284.8,23.911,1.37049,-0.26174
285.4,23.9681,1.36257,-0.263385
286,24.0244,1.3627,-0.265741
286.6,24.082,1.35311,-0.266156
287.2,24.1378,1.34988,-0.269149
287.8,24.1962,1.34843,-0.272125
288.4,24.2506,1.33729,-0.273512
289,24.31,1.33507,-0.276403
289.6,24.367,1.33211,-0.27845
290.2,24.4247,1.32833,-0.28054
290.8,24.4811,1.32516,-0.282397
291.4,24.5387,1.31705,-0.286479
292,24.5952,1.30848,-0.287864
292.6,24.6528,1.31493,-0.290059
293.2,24.7093,1.31292,-0.2909
293.8,24.7669,1.30814,-0.292338
294.4,24.8241,1.3007,-0.294037
295,24.8816,1.2958,-0.295952
295.6,24.9375,1.2961,-0.297637
296.2,24.9944,1.28495,-0.299276
296.8,25.0522,1.28251,-0.302074
297.4,25.1092,1.27714,-0.303303
298,25.1667,1.27489,-0.306938
298.6,25.2218,1.27101,-0.308794
299.2,25.2808,1.26715,-0.309353
299.8,25.337,1.26022,-0.310396
300.4,25.3953,1.25584,-0.313908
301,25.4512,1.24403,-0.315283
301.6,25.5088,1.24671,-0.316729
302.2,25.565,1.23573,-0.31822
302.8,25.6233,1.23328,-0.320091
303.4,25.6803,1.22716,-0.321527
304,25.7355,1.22201,-0.322918
304.6,25.7945,1.21559,-0.324586
305.2,25.8519,1.21486,-0.325472
305.8,25.9095,1.20088,-0.328619
306.4,25.9658,1.19137,-0.330763
307,26.0229,1.1871,-0.331607
307.6,26.0804,1.17448,-0.332103
308.2,26.138,1.18167,-0.334963
308.8,26.1939,1.16639,-0.335932
309.4,26.2512,1.15771,-0.339073
310,26.3086,1.14891,-0.34032
310.6,26.3665,1.1345,-0.341637
311.2,26.423,1.12354,-0.34286
311.8,26.4807,1.12021,-0.345561
312.4,26.5386,1.11468,-0.347122
313,26.5949,1.10445,-0.348431
313.6,26.6528,1.09614,-0.349757
314.2,26.7088,1.08057,-0.351091
314.8,26.7674,1.07437,-0.352406
315.4,26.8245,1.07065,-0.354989
316,26.8811,1.05889,-0.35658
316.6,26.9353,1.05398,-0.357951
317.2,26.9962,1.04149,-0.359864
317.8,27.053,1.03761,-0.362041
318.4,27.1106,1.02536,-0.36248
319,27.1673,1.01173,-0.363811
319.6,27.2249,1.00781,-0.366803
320.2,27.2818,0.990548,-0.368058
320.8,27.3391,0.979154,-0.370681
321.4,27.3954,0.969114,-0.3708
322,27.4532,0.966663,-0.373307
322.6,27.5097,0.951235,-0.375136
323.2,27.5657,0.939227,-0.37812
323.8,27.6255,0.921712,-0.380432
324.4,27.6818,0.911458,-0.381871
325,27.7397,0.899299,-0.383766
325.6,27.7968,0.892001,-0.386111
326.2,27.8539,0.879155,-0.387313
326.8,27.9113,0.86311,-0.390372
327.4,27.968,0.853669,-0.391826
328,28.0245,0.842987,-0.394645
328.6,28.0831,0.824451,-0.395799
329.2,28.1395,0.81072,-0.399041
329.8,28.1968,0.787,-0.401968
330.4,28.2551,0.769684,-0.404804
331,28.3106,0.749814,-0.405678
331.6,28.369,0.733859,-0.407667
332.2,28.4261,0.713206,-0.410488
332.8,28.4839,0.705773,-0.413359
333.4,28.54,0.674531,-0.416224
334,28.5973,0.664754,-0.418448
334.6,28.6543,0.645664,-0.421461
335.2,28.7126,0.619842,-0.424616
335.8,28.77,0.610123,-0.427876
336.4,28.8274,0.581409,-0.432724
337,28.8841,0.564256,-0.435448
337.6,28.9415,0.542222,-0.437164
338.2,28.9994,0.517335,-0.441358
338.8,29.0552,0.49721,-0.445142
339.4,29.1124,0.475392,-0.449424
340,29.1709,0.453779,-0.451081
340.6,29.2252,0.426381,-0.455175
341.2,29.2849,0.405721,-0.459906
341.8,29.342,0.384053,-0.463344
342.4,29.3991,0.35942,-0.467485
343,29.4567,0.33411,-0.471625
343.6,29.5119,0.316842,-0.476668
344.2,29.5711,0.296612,-0.48119
344.8,29.6282,0.265421,-0.485717
345.4,29.686,0.238352,-0.490229
346,29.7433,0.2132,-0.494769
346.6,29.8005,0.189161,-0.499777
347.2,29.8566,0.169825,-0.505227
347.8,29.9143,0.143469,-0.510802
348.4,29.9722,0.120748,-0.51635
349,30.03,0.0937327,-0.521497
349.6,30.0879,0.0641159,-0.5274
350.2,30.1445,0.0452077,-0.533591
350.8,30.2024,0.030697,-0.539609
351.4,30.2595,0.00497908,-0.547003
352,30.3169,-0.00275344,-0.553965
352.6,30.3752,-0.0272801,-0.56109
353.2,30.4326,-0.0545731,-0.568264
353.8,30.4877,-0.0690362,-0.575667
354.4,30.5478,-0.0857725,-0.584568
355,30.6052,-0.1061,-0.592689
355.6,30.6627,-0.116304,-0.601392
356.2,30.7199,-0.142912,-0.610044
356.8,30.7764,-0.149801,-0.618711
357.4,30.8352,-0.172656,-0.627402
358,30.8928,-0.178967,-0.636696
358.6,30.9503,-0.196418,-0.646618
359.2,31.0076,-0.216037,-0.656337
359.8,31.0652,-0.223367,-0.667575
360.4,31.1213,-0.231372,-0.67835
361,31.1805,-0.24381,-0.688739
361.6,31.2378,-0.255923,-0.700203
362.2,31.2946,-0.26312,-0.713195
362.8,31.3523,-0.26794,-0.725607
363.4,31.4107,-0.273135,-0.737293
364,31.4681,-0.276149,-0.750864
364.6,31.5255,-0.282091,-0.762451
365.2,31.5837,-0.280483,-0.775752
365.8,31.6412,-0.279364,-0.79066
366.4,31.6992,-0.280728,-0.804663
367,31.7573,-0.271386,-0.82113
367.6,31.8153,-0.262042,-0.836809
368.2,31.8726,-0.25738,-0.853823
368.8,31.9304,-0.249374,-0.867623
369.4,31.9881,-0.242898,-0.884152
370,32.0463,-0.22523,-0.900625
370.6,32.1039,-0.220971,-0.917188
371.2,32.1625,-0.207614,-0.937303
371.8,32.2214,-0.1996,-0.955302
372.4,32.2785,-0.177739,-0.973531
373,32.3368,-0.165213,-0.992023
373.6,32.3945,-0.148927,-1.01192
374.2,32.4533,-0.135727,-1.03248
374.8,32.5094,-0.108926,-1.05126
375.4,32.5685,-0.0862217,-1.07209
376,32.6273,-0.0687513,-1.09277
376.6,32.6849,-0.0515237,-1.11191
377.2,32.7435,-0.0311387,-1.13424
377.8,32.8014,-0.0054094,-1.15591
378.4,32.8599,0.0200959,-1.17752
379,32.9175,0.0315615,-1.19881
379.6,32.9761,0.0625277,-1.2213
380.2,33.0349,0.0867757,-1.2438
380.8,33.091,0.102904,-1.2656
381.4,33.1515,0.142154,-1.28913
382,33.2103,0.160544,-1.31127
382.6,33.2681,0.187804,-1.33319
383.2,33.3262,0.209784,-1.35616
383.8,33.3862,0.236352,-1.3801
384.4,33.4432,0.260083,-1.40239
385,33.5021,0.281196,-1.4246
385.6,33.5617,0.293219,-1.4483
386.2,33.6188,0.323365,-1.46902
386.8,33.6778,0.336999,-1.49224
387.4,33.7366,0.362516,-1.51378
388,33.7948,0.374915,-1.537
388.6,33.8519,0.399063,-1.55591
389.2,33.9119,0.414039,-1.57722
389.8,33.9707,0.436425,-1.59764
390.4,34.0299,0.451751,-1.6193
391,34.088,0.452488,-1.63865
391.6,34.146,0.474279,-1.65815
392.2,34.2043,0.485696,-1.67798
392.8,34.2632,0.491518,-1.69583
393.4,34.322,0.509109,-1.71427
394,34.38,0.524651,-1.73153
394.6,34.4394,0.540869,-1.75082
395.2,34.497,0.548498,-1.76802
395.8,34.5544,0.557719,-1.78514
396.4,34.6135,0.559189,-1.80061
397,34.6719,0.576606,-1.81764
397.6,34.7303,0.586284,-1.83349
398.2,34.7886,0.587946,-1.84941
398.8,34.8477,0.602761,-1.86287
399.4,34.9059,0.609137,-1.87769
400,34.9642,0.609778,-1.89117
400.6,35.0231,0.620742,-1.9048
401.2,35.0817,0.624976,-1.91906
401.8,35.1383,0.621711,-1.93129
402.4,35.1978,0.630929,-1.94698
403,35.2565,0.633831,-1.95785
403.6,35.3144,0.640542,-1.96808
404.2,35.3725,0.650566,-1.98157
404.8,35.4308,0.649444,-1.99397
405.4,35.4899,0.64566,-2.00577
406,35.5476,0.649816,-2.01655
406.6,35.6071,0.649762,-2.02855
407.2,35.6645,0.662132,-2.03802
407.8,35.7237,0.666511,-2.04769
408.4,35.7819,0.670417,-2.05897
409,35.8405,0.674253,-2.07019
409.6,35.8999,0.684319,-2.08145
410.2,35.958,0.684588,-2.09194
410.8,36.016,0.692168,-2.09992
411.4,36.075,0.695843,-2.10935
412,36.1328,0.70067,-2.11827
412.6,36.1909,0.702825,-2.12852
413.2,36.2499,0.714031,-2.13667
413.8,36.3063,0.713558,-2.14661
414.4,36.3671,0.717545,-2.15702
415,36.4249,0.725161,-2.16639
415.6,36.4842,0.7266,-2.17454
416.2,36.5425,0.725757,-2.18283
416.8,36.6017,0.738393,-2.19371
417.4,36.6602,0.743731,-2.20422
418,36.7173,0.74891,-2.21313
418.6,36.7763,0.763737,-2.22106
419.2,36.8357,0.765403,-2.2302
419.8,36.8935,0.777972,-2.23526
420.4,36.9526,0.782075,-2.2445
421,37.0105,0.789305,-2.25426
421.6,37.0695,0.792921,-2.2626
422.2,37.1281,0.799545,-2.27264
422.8,37.1863,0.812883,-2.28071
423.4,37.2456,0.81617,-2.28909
424,37.3037,0.825258,-2.29772
424.6,37.3617,0.829338,-2.30698
425.2,37.4201,0.837725,-2.31548
425.8,37.4793,0.842868,-2.32493
426.4,37.5379,0.852701,-2.33244
427,37.5957,0.856866,-2.34224
427.6,37.6543,0.866127,-2.35149
428.2,37.7131,0.868871,-2.36016
428.8,37.7713,0.874146,-2.36865
429.4,37.8299,0.882578,-2.37819
430,37.8887,0.891504,-2.38882
430.6,37.9472,0.897179,-2.39777
431.2,38.0063,0.91416,-2.40585
431.8,38.0643,0.918997,-2.41409
432.4,38.1229,0.916653,-2.42359
433,38.1815,0.929004,-2.43388
433.6,38.24,0.943553,-2.4425
434.2,38.2982,0.943672,-2.45228
434.8,38.357,0.943853,-2.46284
435.4,38.4136,0.953455,-2.47142
436,38.4749,0.965656,-2.48161
436.6,38.5335,0.963648,-2.49097
437.2,38.593,0.971793,-2.50057
437.8,38.6497,0.979121,-2.51121
438.4,38.7111,0.985048,-2.51998
439,38.7693,0.989853,-2.52981
439.6,38.8276,1.00162,-2.54076
440.2,38.8864,1.00904,-2.55057
440.8,38.9452,1.01626,-2.56103
441.4,39.0051,1.02111,-2.57283
442,39.063,1.01993,-2.58193
442.6,39.1208,1.03055,-2.59248
443.2,39.1803,1.03158,-2.60383
443.8,39.2386,1.03965,-2.61425
444.4,39.2977,1.04963,-2.62417
445,39.3567,1.0433,-2.63374
445.6,39.4152,1.0538,-2.64408
446.2,39.474,1.06542,-2.6545
446.8,39.5329,1.06955,-2.66482
447.4,39.5922,1.07865,-2.67556
448,39.6512,1.07471,-2.68713
448.6,39.709,1.08649,-2.698
449.2,39.7683,1.0909,-2.70834
449.8,39.8267,1.09589,-2.72016
450.4,39.8853,1.09653,-2.7308
451,39.9449,1.10681,-2.74217
451.6,40.0045,1.11187,-2.75432
452.2,40.062,1.10649,-2.76531
452.8,40.1203,1.11741,-2.77851
453.4,40.1798,1.1176,-2.7885
454,40.2381,1.12315,-2.79974
454.6,40.2979,1.11999,-2.81286
455.2,40.3564,1.12632,-2.82313
455.8,40.4152,1.12875,-2.83497
456.4,40.4748,1.12497,-2.8459
457,40.5318,1.12432,-2.85648
457.6,40.5917,1.12396,-2.86733
458.2,40.6499,1.12835,-2.87958
458.8,40.7103,1.1213,-2.89144
459.4,40.7679,1.11246,-2.90266
460,40.8261,1.11739,-2.91337
460.6,40.8858,1.1128,-2.92451
461.2,40.9422,1.10787,-2.9366
461.8,41.0035,1.10749,-2.94781
462.4,41.0624,1.0976,-2.9589
463,41.1205,1.09518,-2.97083
463.6,41.1796,1.09218,-2.98149
464.2,41.239,1.08541,-2.99229
464.8,41.297,1.0699,-3.0038
465.4,41.357,1.06958,-3.01467
466,41.4154,1.06215,-3.02397
466.6,41.4735,1.05192,-3.03455
467.2,41.5319,1.0403,-3.04437
467.8,41.591,1.03072,-3.0547
468.4,41.6499,1.01008,-3.06699
469,41.7085,1.00525,-3.07551
469.6,41.7682,0.991813,-3.0843
470.2,41.8266,0.981023,-3.09455
470.8,41.8859,0.959472,-3.1015
471.4,41.944,0.951931,-3.11207
472,42.0041,0.929705,-3.12043
472.6,42.0625,0.914886,-3.12939
473.2,42.1206,0.889841,-3.13774
473.8,42.1802,0.872496,-3.14614
474.4,42.2392,0.849004,-3.1544
475,42.2975,0.820214,-3.16095
475.6,42.3567,0.800948,-3.1685
476.2,42.4154,0.778552,-3.17509
476.8,42.4748,0.748762,-3.18022
477.4,42.5333,0.718407,-3.18678
478,42.59,0.694631,-3.19223
478.6,42.6509,0.6691,-3.19593
479.2,42.7099,0.647686,-3.2017
479.8,42.7693,0.614893,-3.20635
480.4,42.8282,0.594052,-3.20984
481,42.8874,0.564671,-3.21527
481.6,42.9462,0.544475,-3.21765
482.2,43.0051,0.521665,-3.22133
482.8,43.0632,0.505254,-3.22294
483.4,43.1228,0.486367,-3.2262
484,43.1816,0.468751,-3.22906
484.6,43.2396,0.456483,-3.23142
485.2,43.299,0.43466,-3.23442
485.8,43.358,0.413736,-3.23574
486.4,43.4178,0.39861,-3.2369
487,43.4767,0.387994,-3.23817
487.6,43.5345,0.372762,-3.24063
488.2,43.5936,0.362986,-3.24198
488.8,43.6539,0.347418,-3.24329
489.4,43.7127,0.340034,-3.24331
490,43.771,0.327647,-3.24488
490.6,43.8297,0.316414,-3.24593
491.2,43.8892,0.305081,-3.24726
491.8,43.9489,0.301857,-3.24767
492.4,44.0081,0.300023,-3.24858
493,44.0667,0.289443,-3.24989
493.6,44.126,0.292344,-3.25122
494.2,44.1851,0.291252,-3.25124
494.8,44.2442,0.278317,-3.25219
495.4,44.3034,0.278186,-3.25158
496,44.3622,0.277836,-3.25259
496.6,44.4209,0.266755,-3.25254
497.2,44.48,0.266348,-3.25383
497.8,44.5399,0.259356,-3.25517
498.4,44.5985,0.253795,-3.25441
499,44.6577,0.254725,-3.25386
499.6,44.7167,0.246492,-3.25517
500.2,44.7761,0.246688,-3.25571
500.8,44.8338,0.238521,-3.25616
501.4,44.8944,0.237838,-3.25488
502,44.9537,0.236123,-3.25484
502.6,45.0133,0.231693,-3.25485
503.2,45.0723,0.227754,-3.25516
503.8,45.1316,0.234507,-3.25616
504.4,45.1911,0.225511,-3.25639
505,45.2506,0.226961,-3.25781
505.6,45.31,0.221258,-3.25782
506.2,45.3696,0.220096,-3.25906
506.8,45.4285,0.213604,-3.25781
507.4,45.4885,0.226844,-3.25781
508,45.5467,0.220713,-3.25781
508.6,45.6052,0.210601,-3.25781
509.2,45.6652,0.217596,-3.26014
509.8,45.7245,0.212639,-3.26011
510.4,45.7841,0.210971,-3.26011
511,45.8434,0.207397,-3.25922
511.6,45.9022,0.205551,-3.25939
512.2,45.9626,0.20283,-3.26043
512.8,46.0215,0.209406,-3.26044
513.4,46.0806,0.205421,-3.26011
514,46.1381,0.203658,-3.26011
514.6,46.1995,0.202432,-3.26011
515.2,46.2596,0.20302,-3.25952
515.8,46.3179,0.199188,-3.26077
516.4,46.3762,0.203427,-3.26077
517,46.4369,0.196144,-3.26077
517.6,46.4965,0.196707,-3.26077
518.2,46.5558,0.193428,-3.26099
518.8,46.6159,0.190841,-3.26176
519.4,46.6746,0.19238,-3.26308
520,46.7346,0.193895,-3.26344
520.6,46.7932,0.189277,-3.26341
521.2,46.8528,0.192118,-3.26211
521.8,46.9118,0.192256,-3.2634
522.4,46.9717,0.193381,-3.2634
523,47.0318,0.19757,-3.2634
523.6,47.0894,0.19014,-3.2634
524.2,47.1511,0.189956,-3.26207
524.8,47.2108,0.189245,-3.26208
525.4,47.2692,0.1902,-3.26208
526,47.329,0.185563,-3.26208
526.6,47.3877,0.187387,-3.26208
527.2,47.4478,0.182957,-3.26307
527.8,47.5064,0.188275,-3.26336
528.4,47.5668,0.190043,-3.2634
529,47.6263,0.18844,-3.2634
529.6,47.6851,0.187209,-3.2634
530.2,47.7453,0.188666,-3.2634
530.8,47.8039,0.189833,-3.2634
531.4,47.8639,0.193436,-3.2634
532,47.9242,0.19212,-3.26374
532.6,47.9825,0.195834,-3.26374
533.2,48.0421,0.194924,-3.26374
533.8,48.1016,0.196366,-3.26374
534.4,48.1619,0.193831,-3.26374
535,48.2209,0.199968,-3.26411
535.6,48.2783,0.192163,-3.26637
536.2,48.3406,0.187936,-3.26637
536.8,48.399,0.193846,-3.26506
537.4,48.4584,0.18624,-3.26506
538,48.518,0.185988,-3.26506
538.6,48.576,0.190683,-3.26506
539.2,48.6371,0.180379,-3.26506
539.8,48.6958,0.179773,-3.26506
540.4,48.7554,0.177639,-3.26506
541,48.8148,0.17601,-3.26531
541.6,48.8743,0.178322,-3.26637
542.2,48.9333,0.176179,-3.26637
542.8,48.9943,0.176889,-3.26638
543.4,49.0528,0.179042,-3.26383
544,49.1128,0.180849,-3.26374
544.6,49.1722,0.171397,-3.26374
545.2,49.232,0.175577,-3.26505
545.8,49.292,0.171676,-3.26505
546.4,49.3516,0.166742,-3.26561
547,49.4115,0.167489,-3.26637
547.6,49.4705,0.168841,-3.26637
548.2,49.5301,0.16752,-3.26721
548.8,49.59,0.165756,-3.26637
549.4,49.6483,0.167894,-3.26637
550,49.7095,0.168507,-3.26637
550.6,49.7688,0.167969,-3.26638
551.2,49.8286,0.171588,-3.26473
551.8,49.8882,0.161725,-3.26472
552.4,49.948,0.163885,-3.26472
553,50.0079,0.164243,-3.26604
553.6,50.0676,0.157896,-3.26703
554.2,50.1268,0.157803,-3.26703
554.8,50.1863,0.156675,-3.26671
555.4,50.2471,0.160239,-3.26538
556,50.3062,0.160462,-3.26652
556.6,50.366,0.157171,-3.2667
557.2,50.4253,0.162942,-3.26658
557.8,50.4855,0.161737,-3.26669
558.4,50.5435,0.156353,-3.2667
559,50.6047,0.156305,-3.2664
559.6,50.6644,0.153913,-3.26604
560.2,50.7242,0.14867,-3.26604
560.8,50.7846,0.158203,-3.26604
561.4,50.8445,0.147856,-3.26467
562,50.9036,0.146849,-3.26556
562.6,50.9625,0.139436,-3.26604
563.2,51.0233,0.14042,-3.26604
563.8,51.0831,0.142437,-3.26652
564.4,51.1434,0.133815,-3.26736
565,51.2041,0.135519,-3.26736
565.6,51.2627,0.131567,-3.26721
566.2,51.323,0.134525,-3.26604
566.8,51.3827,0.139521,-3.26725
567.4,51.4418,0.134618,-3.26735
568,51.5014,0.135204,-3.26735
568.6,51.5621,0.137592,-3.26669
569.2,51.6222,0.129994,-3.26669
569.8,51.6797,0.12602,-3.26802
570.4,51.7411,0.129672,-3.26685
571,51.8017,0.127105,-3.26669
571.6,51.8617,0.126135,-3.2681
572.2,51.921,0.131035,-3.26863
572.8,51.9813,0.129148,-3.26803
573.4,52.0406,0.13021,-3.26768
574,52.1003,0.125346,-3.26768
574.6,52.1603,0.126484,-3.26768
575.2,52.2204,0.130319,-3.26768
575.8,52.2803,0.122553,-3.26865
576.4,52.3397,0.122184,-3.26769
577,52.3992,0.128055,-3.26769
577.6,52.4603,0.127139,-3.26769
578.2,52.5191,0.124476,-3.26769
578.8,52.5795,0.123081,-3.26769
579.4,52.6382,0.124361,-3.26769
580,52.6985,0.119685,-3.26769
580.6,52.7589,0.125359,-3.26804
581.2,52.8186,0.128213,-3.26802
581.8,52.8799,0.124981,-3.26802
582.4,52.9393,0.121716,-3.26932
583,52.999,0.121873,-3.26934
583.6,53.0587,0.126711,-3.26935
584.2,53.1198,0.132951,-3.26901
584.8,53.1799,0.131801,-3.27031
585.4,53.2394,0.121313,-3.27032
586,53.2995,0.123067,-3.26903
586.6,53.3593,0.122219,-3.26901
587.2,53.4193,0.125492,-3.26769
587.8,53.479,0.125148,-3.26769
588.4,53.5396,0.12977,-3.26867
589,53.5979,0.126014,-3.26867
589.6,53.6597,0.125554,-3.26703
590.2,53.7201,0.123016,-3.26703
590.8,53.7797,0.118956,-3.26702
591.4,53.8386,0.123513,-3.26768
592,53.8985,0.120697,-3.26768
592.6,53.9581,0.116845,-3.26768
593.2,54.0195,0.113554,-3.26834
593.8,54.0789,0.112618,-3.26867
594.4,54.1393,0.114467,-3.26964
595,54.1993,0.103798,-3.26966
595.6,54.2596,0.10434,-3.26966
596.2,54.318,0.109874,-3.26966
596.8,54.3791,0.113029,-3.26966
597.4,54.4394,0.107187,-3.26963
598,54.4993,0.111251,-3.27065
598.6,54.5595,0.110228,-3.271
599.2,54.6194,0.108777,-3.26966
599.8,54.6797,0.104767,-3.26966
600.4,54.7408,0.101194,-3.26966
601,54.7993,0.104008,-3.26966
601.6,54.8587,0.102291,-3.26835
602.2,54.919,0.0954654,-3.26972
602.8,54.978,0.102966,-3.26967
603.4,55.0393,0.0969316,-3.26958
604,55.0994,0.0997377,-3.269
604.6,55.1591,0.095451,-3.26899
605.2,55.2193,0.100069,-3.27098
605.8,55.2787,0.101717,-3.27098
606.4,55.3386,0.0954986,-3.27098
607,55.3985,0.0947323,-3.26999
607.6,55.4585,0.0984936,-3.26999
608.2,55.5188,0.105786,-3.26999
608.8,55.5793,0.107069,-3.27134
609.4,55.638,0.110631,-3.27095
610,55.6991,0.103849,-3.269
610.6,55.7586,0.106038,-3.26901
611.2,55.8179,0.104427,-3.26901
611.8,55.8779,0.103917,-3.27032
612.4,55.9385,0.095034,-3.26999
613,55.9988,0.103204,-3.27131
613.6,56.059,0.101848,-3.26996
614.2,56.1188,0.0952212,-3.26999
614.8,56.1792,0.102875,-3.26998
615.4,56.2398,0.0992196,-3.27131
616,56.2983,0.107648,-3.27131
616.6,56.359,0.104799,-3.27131
617.2,56.4199,0.106805,-3.26994
617.8,56.4786,0.103987,-3.26999
618.4,56.5402,0.10614,-3.26999
619,56.6006,0.105612,-3.26999
619.6,56.6589,0.0993743,-3.26999
620.2,56.7185,0.0944483,-3.26866
620.8,56.7799,0.0998699,-3.26936
621.4,56.8402,0.0977001,-3.26999
622,56.8998,0.09571,-3.26999
622.6,56.9595,0.100792,-3.26999
623.2,57.02,0.0917429,-3.26999
623.8,57.0796,0.0980274,-3.27034
624.4,57.1397,0.0898175,-3.27032
625,57.1999,0.0944358,-3.27032
625.6,57.2607,0.0867962,-3.27032
626.2,57.3207,0.0861078,-3.2703
626.8,57.3809,0.0940319,-3.26984
627.4,57.4416,0.0818398,-3.27
628,57.501,0.0833061,-3.27
628.6,57.5596,0.0771589,-3.27
629.2,57.6214,0.0845516,-3.27
629.8,57.6814,0.0838341,-3.27
630.4,57.742,0.0854519,-3.27
631,57.802,0.079976,-3.27
631.6,57.8623,0.0803112,-3.27025
632.2,57.9232,0.0806632,-3.27099
632.8,57.9828,0.0858227,-3.27131
633.4,58.0435,0.0851613,-3.27131
634,58.1031,0.0795858,-3.27131
634.6,58.1631,0.0834064,-3.27131
635.2,58.2244,0.0837646,-3.27131
635.8,58.2846,0.0901894,-3.27247
636.4,58.3426,0.0829472,-3.27131
637,58.4051,0.0810932,-3.27132
637.6,58.4654,0.0757632,-3.27197
638.2,58.5246,0.075867,-3.27061
638.8,58.5854,0.0766504,-3.27065
639.4,58.6459,0.0670667,-3.27206
640,58.7062,0.0760137,-3.27208
640.6,58.7672,0.0755494,-3.27223
641.2,58.8259,0.0698816,-3.27208
641.8,58.8868,0.0695326,-3.27208
642.4,58.9477,0.0714033,-3.27208
643,59.0087,0.0677999,-3.27208
643.6,59.0686,0.0789065,-3.27138
644.2,59.128,0.077311,-3.27076
644.8,59.1885,0.0741945,-3.27159
645.4,59.2486,0.0755119,-3.27175
646,59.3096,0.07368,-3.27175
646.6,59.3688,0.0766404,-3.27307
647.2,59.4295,0.0754584,-3.27209
647.8,59.4896,0.0800539,-3.27077
648.4,59.5495,0.0816349,-3.27076
649,59.6104,0.0775067,-3.27174
649.6,59.6707,0.0716213,-3.27142
650.2,59.7319,0.0736055,-3.27142
650.8,59.7916,0.0783632,-3.27273
651.4,59.8522,0.0758287,-3.27338
652,59.9127,0.0797724,-3.27407
652.6,59.9728,0.0818468,-3.27345
653.2,60.0331,0.0781187,-3.27306
653.8,60.0939,0.0816008,-3.27436
654.4,60.1541,0.0799277,-3.27447
655,60.2134,0.0842153,-3.27306
655.6,60.2739,0.093887,-3.27306
656.2,60.334,0.0914873,-3.27306
656.8,60.3947,0.0971266,-3.27444
657.4,60.4551,0.0938521,-3.27438
658,60.5152,0.0968033,-3.27405
658.6,60.576,0.0978638,-3.27405
659.2,60.6362,0.0949217,-3.27404
659.8,60.6974,0.0935837,-3.27274
660.4,60.7571,0.0914162,-3.27274
661,60.8172,0.0949222,-3.27334
661.6,60.8773,0.0891902,-3.27369
662.2,60.9364,0.0885578,-3.27303
662.8,60.9976,0.0856415,-3.27274
663.4,61.0586,0.0874695,-3.27274
664,61.1191,0.0925516,-3.27274
664.6,61.1798,0.0828076,-3.27274
665.2,61.24,0.0843215,-3.27274
665.8,61.2997,0.074812,-3.27274
666.4,61.3604,0.0843649,-3.27274
667,61.4215,0.0867034,-3.27322
667.6,61.4811,0.0908005,-3.27405
668.2,61.5414,0.0878688,-3.27406
668.8,61.6019,0.0863454,-3.27405
669.4,61.6622,0.0827468,-3.27373
670,61.7227,0.0840427,-3.27373
670.6,61.784,0.0819656,-3.27348
671.2,61.8436,0.0799142,-3.27372
671.8,61.9042,0.0709606,-3.2724
672.4,61.964,0.0811371,-3.27275
673,62.0257,0.0815594,-3.27273
673.6,62.0856,0.0840772,-3.27345
674.2,62.1459,0.0787859,-3.27339
674.8,62.2068,0.0757399,-3.27339
675.4,62.2669,0.0805006,-3.27372
676,62.3281,0.0760791,-3.27372
676.6,62.3883,0.0703812,-3.27472
677.2,62.448,0.0718946,-3.27471
677.8,62.5084,0.0707136,-3.27471
678.4,62.5694,0.0647208,-3.27471
679,62.6294,0.061299,-3.27471
679.6,62.6907,0.0632585,-3.27471
680.2,62.7495,0.0689121,-3.27471
680.8,62.8087,0.0800235,-3.27471
681.4,62.869,0.0740342,-3.27403
682,62.9315,0.0798889,-3.27339
682.6,62.9931,0.0810228,-3.27336
683.2,63.0508,0.0797772,-3.27372
683.8,63.1134,0.0790829,-3.27372
684.4,63.1733,0.0823551,-3.27505
685,63.2338,0.0813586,-3.27504
685.6,63.293,0.0820155,-3.27504
686.2,63.3551,0.086867,-3.27504
686.8,63.4157,0.0837095,-3.27645
687.4,63.4769,0.0850677,-3.27505
688,63.5364,0.0760064,-3.27406
688.6,63.5973,0.07103,-3.27406
689.2,63.6577,0.0748417,-3.27538
689.8,63.718,0.0781119,-3.27538
690.4,63.7788,0.0736232,-3.27538
691,63.839,0.0727912,-3.27538
691.6,63.9001,0.0686527,-3.27439
692.2,63.9611,0.0647006,-3.27439
692.8,64.0213,0.0725563,-3.27439
693.4,64.0819,0.0742153,-3.27473
694,64.1433,0.0732262,-3.2757
694.6,64.2031,0.0784012,-3.2757
695.2,64.2637,0.0800373,-3.2757
695.8,64.3251,0.0796758,-3.27571
696.4,64.3851,0.083949,-3.27702
697,64.4471,0.0828772,-3.27576
697.6,64.5084,0.080084,-3.27533
698.2,64.568,0.0807249,-3.27675
698.8,64.6289,0.0795021,-3.2757
699.4,64.6893,0.0740536,-3.27435
700,64.7496,0.0733281,-3.27549
700.6,64.8091,0.071947,-3.2757
701.2,64.8714,0.0639662,-3.2757
701.8,64.9317,0.0809063,-3.27709
702.4,64.9921,0.0745314,-3.27702
703,65.0538,0.0783769,-3.27669
703.6,65.113,0.0728853,-3.27669
704.2,65.1748,0.0702027,-3.27537
704.8,65.2352,0.0630456,-3.27533
705.4,65.2945,0.0654816,-3.27669
706,65.3568,0.0628111,-3.27734
706.6,65.4167,0.0653045,-3.27734
707.2,65.4758,0.0630138,-3.27734
707.8,65.5368,0.0616506,-3.27734
708.4,65.598,0.0625162,-3.27735
709,65.6587,0.0608186,-3.27735
709.6,65.7194,0.0559087,-3.27735
710.2,65.7799,0.0591578,-3.27735
710.8,65.8406,0.0579621,-3.27735
711.4,65.9001,0.0498729,-3.27735
712,65.9614,0.0488538,-3.27735
712.6,66.0214,0.0550009,-3.27804
713.2,66.0828,0.0520118,-3.27801
713.8,66.1434,0.0545231,-3.27702
714.4,66.2036,0.0577538,-3.27702
715,66.2644,0.0535643,-3.27703
715.6,66.3249,0.057282,-3.27776
716.2,66.3855,0.0556577,-3.2777
716.8,66.4469,0.0532718,-3.27636
717.4,66.5072,0.05451,-3.27705
718,66.5674,0.0540264,-3.27669
718.6,66.6284,0.0618808,-3.27667
719.2,66.689,0.0650628,-3.27702
719.8,66.7493,0.0546688,-3.27702
720.4,66.8094,0.0482017,-3.27702
721,66.8712,0.0421946,-3.27727
721.6,66.9313,0.0399102,-3.27833
722.2,66.9918,0.0408934,-3.279
722.8,67.0529,0.0436562,-3.27802
723.4,67.1132,0.043562,-3.27768
724,67.1738,0.047944,-3.27768
724.6,67.235,0.048587,-3.27764
725.2,67.2964,0.0438136,-3.27899
725.8,67.3571,0.0492744,-3.279
726.4,67.4179,0.0468887,-3.27767
727,67.4788,0.0504195,-3.27767
727.6,67.5394,0.0429203,-3.27767
728.2,67.6001,0.0406081,-3.2774
728.8,67.6616,0.0389293,-3.27702
729.4,67.7226,0.0377158,-3.27702
730,67.7834,0.042655,-3.27702
730.6,67.8433,0.04629,-3.27687
731.2,67.9063,0.0444974,-3.27626
731.8,67.9661,0.0484463,-3.27636
732.4,68.0251,0.0436825,-3.27636
733,68.0889,0.0514133,-3.27636
733.6,68.149,0.0538864,-3.27636
734.2,68.2104,0.0602338,-3.2778
734.8,68.271,0.0607397,-3.27834
735.4,68.3317,0.0559387,-3.27894
736,68.3918,0.0573315,-3.279
736.6,68.4531,0.0513441,-3.279
737.2,68.5128,0.0351279,-3.279
737.8,68.5738,0.0416011,-3.279
738.4,68.6339,0.0406886,-3.28033
739,68.6949,0.0487598,-3.28032
739.6,68.7565,0.0447457,-3.28032
740.2,68.8168,0.0396083,-3.2803
740.8,68.8767,0.0449444,-3.279
741.4,68.9388,0.0405812,-3.279
742,68.9993,0.0389603,-3.279
742.6,69.0604,0.0304621,-3.279
743.2,69.1206,0.0284565,-3.27899
743.8,69.181,0.021091,-3.28031
744.4,69.2423,0.0179815,-3.27899
745,69.3025,0.022549,-3.27899
745.6,69.3636,0.0181222,-3.27899
746.2,69.4239,0.0165167,-3.27899
746.8,69.4849,0.0220486,-3.27899
747.4,69.5445,0.00917912,-3.27899
748,69.6052,0.0100359,-3.27899
748.6,69.6657,0.00318812,-3.27899
749.2,69.7267,0.00546785,-3.28031
749.8,69.7869,0.00713376,-3.279
750.4,69.8478,0.0160224,-3.27899
751,69.9082,0.00685621,-3.28007
751.6,69.9685,0.00893307,-3.27867
752.2,70.0292,0.00362134,-3.27867
752.8,70.0903,0.00171647,-3.27867
753.4,70.1511,-0.00147357,-3.28003
754,70.2116,-0.00468683,-3.28031
754.6,70.2726,-0.00508106,-3.27899
755.2,70.3331,-0.00487877,-3.28032
755.8,70.3936,-0.00860298,-3.28032
756.4,70.454,-0.0006016,-3.28032
757,70.5145,9.99517e-05,-3.279
757.6,70.5762,0.00493539,-3.28036
758.2,70.6359,0.000143015,-3.28032
758.8,70.6973,-0.00144125,-3.28124
759.4,70.7579,0.00271634,-3.28137
760,70.8182,0.00772494,-3.28031
760.6,70.8788,-1.48092e-05,-3.28032
761.2,70.939,0.00851268,-3.279
761.8,71.0009,-0.00277016,-3.27966
762.4,71.0611,-0.00427096,-3.28095
763,71.1225,-0.00167941,-3.28097
763.6,71.1829,-0.00283097,-3.27954
764.2,71.2438,0.00306594,-3.28097
764.8,71.304,0.00106725,-3.28098
765.4,71.3663,0.010193,-3.27965
766,71.4265,0.000804286,-3.28097
766.6,71.4873,0.00357131,-3.27964
767.2,71.5469,0.0100347,-3.28097
767.8,71.6083,0.00496805,-3.28097
768.4,71.6671,0.00910067,-3.28031
769,71.7287,0.00951309,-3.28031
769.6,71.7892,0.0126824,-3.28031
770.2,71.8518,0.00382349,-3.28031
770.8,71.9122,0.0125638,-3.28032
771.4,71.973,0.00930658,-3.27965
772,72.0332,0.00724265,-3.27965
772.6,72.0953,0.00299655,-3.27965
773.2,72.1559,0.00810997,-3.27965
773.8,72.2156,5.16501e-05,-3.28088
774.4,72.2769,-0.00498714,-3.28101
775,72.338,-0.0063551,-3.28032
775.6,72.3984,-0.00136892,-3.28032
776.2,72.4597,-0.00641544,-3.28032
776.8,72.52,-0.00444474,-3.28032
777.4,72.5815,-0.00377609,-3.28163
778,72.642,0.00232246,-3.28163
778.6,72.7028,0.0139259,-3.28163
779.2,72.7635,0.00148606,-3.28163
779.8,72.8243,-0.00429516,-3.28163
780.4,72.8857,-0.00178887,-3.28163
781,72.9472,-0.0119591,-3.28167
781.6,73.0077,-0.00824475,-3.28229
782.2,73.0669,-0.00727429,-3.28229
782.8,73.1291,-0.00489275,-3.28229
783.4,73.1904,-0.00428625,-3.28098
784,73.2507,-0.0162696,-3.28164
784.6,73.3111,-0.0146688,-3.28229
785.2,73.372,-0.0205313,-3.28229
785.8,73.4324,-0.0201588,-3.28229
786.4,73.4934,-0.023365,-3.28229
787,73.5539,-0.0310098,-3.28229
787.6,73.6149,-0.0309679,-3.28242
788.2,73.6758,-0.0326657,-3.28361
788.8,73.737,-0.0351971,-3.28361
789.4,73.7981,-0.0357505,-3.2834
790,73.8592,-0.0337358,-3.28229