File: 01_Data/Neoprene_SCBA_Face_Seal/STA/N2/10K_min/Neoprene_SCBA_Face_Seal_STA_N2_10KData_250915_R3.csv
Temp./C,Time/min,DSC/(mW/mg),Mass loss/mg
40.0,0.0,0.898633,-0.0158417
40.6,0.0821613,0.914469,-0.0147152
41.2,0.162687,0.92635,-0.0158345
41.8,0.242799,0.948823,-0.0167106
42.4,0.322956,0.968751,-0.0161143
43,0.399892,0.980004,-0.0154696
43.6,0.478405,1.00842,-0.0159706
44.2,0.553202,1.01692,-0.0163522
44.8,0.629459,1.02999,-0.0166891
45.4,0.703548,1.04777,-0.0168626
46,0.778099,1.05805,-0.0173943
46.6,0.852311,1.07178,-0.0174587
47.2,0.925211,1.08672,-0.0175378
47.8,0.997865,1.09729,-0.0171986
48.4,1.07034,1.10683,-0.0175409
49,1.14131,1.12497,-0.0174244
49.6,1.21181,1.13491,-0.0174541
50.2,1.28234,1.14451,-0.0175438
50.8,1.3523,1.15755,-0.0174306
51.4,1.42402,1.17095,-0.0176001
52,1.49461,1.18419,-0.0187613
52.6,1.56195,1.20114,-0.0182931
53.2,1.63038,1.21388,-0.017586
53.8,1.69934,1.23116,-0.0182067
54.4,1.76633,1.24443,-0.0184196
55,1.83518,1.25622,-0.0188762
55.6,1.90058,1.27253,-0.0188566
56.2,1.96827,1.29818,-0.0185802
56.8,2.03483,1.31474,-0.0188209
57.4,2.10082,1.34441,-0.0184929
58,2.16778,1.37255,-0.0181832
58.6,2.23531,1.39352,-0.018675
59.2,2.29632,1.41208,-0.0180114
59.8,2.36398,1.40158,-0.0199415
60.4,2.42776,1.3952,-0.02019
61,2.49231,1.38932,-0.0202468
61.6,2.55537,1.37719,-0.0214471
62.2,2.61683,1.38483,-0.0202291
62.8,2.68418,1.38548,-0.0188648
63.4,2.74914,1.38346,-0.0188758
64,2.81106,1.38471,-0.0190428
64.6,2.8734,1.3896,-0.0201963
65.2,2.93705,1.39731,-0.0201919
65.8,3.00033,1.40921,-0.0201358
66.4,3.06161,1.41055,-0.0200906
67,3.12513,1.41052,-0.0201958
67.6,3.18754,1.41794,-0.0201884
68.2,3.24868,1.42367,-0.0201889
68.8,3.30875,1.43402,-0.0200404
69.4,3.37184,1.43485,-0.0224954
70,3.43474,1.44651,-0.0224149
70.6,3.49732,1.44941,-0.0227048
71.2,3.55743,1.464,-0.0223786
71.8,3.61933,1.46598,-0.0212119
72.4,3.67773,1.47331,-0.0223904
73,3.74015,1.47461,-0.0210085
73.6,3.80115,1.48632,-0.0210903
74.2,3.86385,1.48987,-0.0224276
74.8,3.92483,1.48794,-0.0236647
75.4,3.98708,1.49955,-0.0237473
76,4.0468,1.51064,-0.0248351
76.6,4.10896,1.50866,-0.0237079
77.2,4.16913,1.51982,-0.0246894
77.8,4.2295,1.51928,-0.0237164
78.4,4.28972,1.52319,-0.0239725
79,4.35024,1.52729,-0.0250257
79.6,4.41046,1.53602,-0.0251203
80.2,4.47186,1.5347,-0.0250215
80.8,4.53172,1.53591,-0.0240346
81.4,4.59149,1.53829,-0.0240346
82,4.65331,1.54926,-0.0253585
82.6,4.71243,1.5599,-0.0250277
83.2,4.77159,1.56461,-0.0250004
83.8,4.83127,1.55804,-0.0250147
84.4,4.89128,1.56589,-0.0251052
85,4.95163,1.56376,-0.0261568
85.6,5.01,1.57446,-0.0250727
86.2,5.069,1.57357,-0.0250232
86.8,5.12895,1.58106,-0.0239157
87.4,5.18923,1.57286,-0.0250302
88,5.24652,1.5739,-0.024068
88.6,5.30749,1.57508,-0.0250202
89.2,5.36682,1.58082,-0.0253336
89.8,5.42462,1.58499,-0.0263402
90.4,5.48452,1.58073,-0.0255676
91,5.54274,1.58736,-0.0250182
91.6,5.60071,1.58684,-0.0263766
92.2,5.65967,1.59634,-0.0250244
92.8,5.71956,1.60043,-0.0263335
93.4,5.77875,1.59637,-0.0275212
94,5.83608,1.59678,-0.02702
94.6,5.89488,1.60169,-0.0263351
95.2,5.95421,1.60905,-0.024998
95.8,6.01093,1.60592,-0.0263585
96.4,6.0702,1.60822,-0.02634
97,6.12538,1.60141,-0.0263558
97.6,6.18727,1.61087,-0.0262828
98.2,6.24654,1.59427,-0.0263407
98.8,6.30095,1.60769,-0.027784
99.4,6.36174,1.60623,-0.0264226
100,6.41889,1.60311,-0.0276605
100.6,6.47859,1.60214,-0.0267808
101.2,6.53486,1.60297,-0.0276617
101.8,6.59065,1.60309,-0.0276597
102.4,6.65187,1.60099,-0.0284207
103,6.71008,1.59812,-0.0276641
103.6,6.76655,1.60122,-0.0289761
104.2,6.82273,1.59523,-0.0280123
104.8,6.8832,1.60457,-0.0279797
105.4,6.94204,1.60353,-0.0293055
106,6.99954,1.60141,-0.0290082
106.6,7.0573,1.61179,-0.0276605
107.2,7.11394,1.60581,-0.0286423
107.8,7.17066,1.61576,-0.0289805
108.4,7.23088,1.61916,-0.0276777
109,7.28959,1.62272,-0.0289871
109.6,7.34672,1.61566,-0.0289802
110.2,7.4031,1.61967,-0.0285585
110.8,7.46188,1.63042,-0.0289702
111.4,7.52026,1.62086,-0.0290101
112,7.57652,1.62747,-0.0289695
112.6,7.63413,1.6396,-0.0289701
113.2,7.69204,1.63213,-0.0294142
113.8,7.75069,1.63491,-0.0302905
114.4,7.80778,1.64273,-0.0290077
115,7.86555,1.63854,-0.0289782
115.6,7.92348,1.64579,-0.0302984
116.2,7.9803,1.64744,-0.030317
116.8,8.03858,1.65392,-0.0301761
117.4,8.09568,1.64845,-0.029412
118,8.1551,1.65097,-0.0289709
118.6,8.21182,1.64934,-0.0303316
119.2,8.26817,1.65508,-0.030291
119.8,8.32685,1.66154,-0.0312902
120.4,8.3834,1.65813,-0.0312801
121,8.44141,1.66268,-0.0299579
121.6,8.49644,1.66517,-0.0302896
122.2,8.55505,1.66514,-0.0303821
122.8,8.61182,1.67225,-0.0316099
123.4,8.6709,1.66511,-0.03161
124,8.72795,1.66837,-0.0307841
124.6,8.78525,1.66991,-0.0306397
125.2,8.84178,1.67294,-0.0315858
125.8,8.90061,1.68272,-0.0305968
126.4,8.95705,1.68005,-0.030629
127,9.01297,1.67849,-0.0319399
127.6,9.07302,1.68272,-0.0306367
128.2,9.12913,1.68181,-0.03029
128.8,9.1872,1.68092,-0.0302906
129.4,9.2433,1.68001,-0.0316029
130,9.30086,1.6885,-0.03161
130.6,9.35893,1.68505,-0.0316539
131.2,9.41601,1.69727,-0.0302917
131.8,9.47293,1.69811,-0.031592
132.4,9.5307,1.69469,-0.0316001
133,9.58639,1.70317,-0.0310423
133.6,9.64418,1.70228,-0.0311923
134.2,9.69992,1.69998,-0.0319424
134.8,9.75785,1.69792,-0.0316071
135.4,9.81412,1.70881,-0.03161
136,9.87105,1.70545,-0.0315873
136.6,9.92767,1.70445,-0.0319146
137.2,9.98566,1.70355,-0.0316105
137.8,10.0421,1.70836,-0.0316867
138.4,10.0987,1.71488,-0.0316121
139,10.1553,1.71452,-0.0322548
139.6,10.2128,1.71891,-0.03227
140.2,10.27,1.70609,-0.0322695
140.8,10.3258,1.70525,-0.0333272
141.4,10.3836,1.70194,-0.0319304
142,10.4402,1.71298,-0.0319383
142.6,10.4968,1.70642,-0.0322162
143.2,10.5535,1.72198,-0.0325884
143.8,10.6104,1.72392,-0.03227
144.4,10.6672,1.72524,-0.03227
145,10.7229,1.71774,-0.03227
145.6,10.7811,1.72787,-0.0320939
146.2,10.8342,1.73181,-0.0308688
146.8,10.893,1.72633,-0.0332474
147.4,10.9499,1.72988,-0.0332598
148,11.0064,1.72683,-0.0329897
148.6,11.0631,1.73264,-0.0319401
149.2,11.1199,1.73275,-0.0326162
149.8,11.1765,1.73294,-0.0328039
150.4,11.2333,1.7372,-0.03194
151,11.2893,1.73963,-0.03194
151.6,11.3451,1.74389,-0.0319383
152.2,11.402,1.74476,-0.0332586
152.8,11.4585,1.74901,-0.0332489
153.4,11.5155,1.74814,-0.0318877
154,11.5723,1.75222,-0.03212
154.6,11.6283,1.76273,-0.0332505
155.2,11.685,1.75975,-0.03325
155.8,11.7426,1.75579,-0.03325
156.4,11.7983,1.75852,-0.0332543
157,11.8556,1.75944,-0.0342721
157.6,11.9114,1.75739,-0.03457
158.2,11.9668,1.76558,-0.0344376
158.8,12.0243,1.76225,-0.03326
159.4,12.0818,1.76839,-0.0339465
160,12.1381,1.77086,-0.0332319
160.6,12.1943,1.77523,-0.0332591
161.2,12.2502,1.77483,-0.0339122
161.8,12.3079,1.77791,-0.0339329
162.4,12.3647,1.77573,-0.0352293
163,12.4197,1.77608,-0.0352875
163.6,12.477,1.77605,-0.0339111
164.2,12.5328,1.7855,-0.03391
164.8,12.5877,1.78058,-0.03391
165.4,12.6468,1.78965,-0.0338816
166,12.7028,1.78498,-0.03523
166.6,12.7605,1.79194,-0.0347427
167.2,12.8163,1.78889,-0.0329184
167.8,12.8724,1.78941,-0.0342398
168.4,12.9287,1.80335,-0.0355481
169,12.9854,1.79715,-0.0355483
169.6,13.0429,1.80325,-0.0355946
170.2,13.0993,1.79535,-0.0355862
170.8,13.1546,1.8063,-0.0368695
171.4,13.2125,1.80491,-0.0355654
172,13.2683,1.81124,-0.0355597
172.6,13.326,1.80945,-0.0364334
173.2,13.3816,1.81181,-0.0368701
173.8,13.4377,1.81821,-0.0369276
174.4,13.4931,1.81619,-0.0358899
175,13.5508,1.82258,-0.0371892
175.6,13.607,1.82914,-0.03721
176.2,13.6637,1.83852,-0.03721
176.8,13.7206,1.83171,-0.03721
177.4,13.7767,1.83513,-0.0372107
178,13.834,1.83332,-0.0384728
178.6,13.8901,1.84518,-0.0381998
179.2,13.9459,1.85374,-0.0381999
179.8,14.0031,1.84919,-0.0386622
180.4,14.0602,1.84377,-0.0395203
181,14.1164,1.84736,-0.0395088
181.6,14.1723,1.85125,-0.0375347
182.2,14.2282,1.85642,-0.0387384
182.8,14.2846,1.85629,-0.03886
183.4,14.3411,1.85722,-0.0388535
184,14.3975,1.86569,-0.0401672
184.6,14.4549,1.86561,-0.0401701
185.2,14.5114,1.86109,-0.0410749
185.8,14.5685,1.86342,-0.0401698
186.4,14.6245,1.86386,-0.041545
187,14.6803,1.86693,-0.0414853
187.6,14.7373,1.86937,-0.0404984
188.2,14.7928,1.8727,-0.0404999
188.8,14.8491,1.87227,-0.0417558
189.4,14.9065,1.87287,-0.0431291
190,14.9617,1.86845,-0.0419264
190.6,15.0187,1.87781,-0.0418152
191.2,15.0744,1.87448,-0.04314
191.8,15.1315,1.87592,-0.0431395
192.4,15.1886,1.87358,-0.0442423
193,15.2442,1.87665,-0.0444648
193.6,15.3004,1.87928,-0.044895
194.2,15.3572,1.88132,-0.0457761
194.8,15.4137,1.88235,-0.0444514
195.4,15.4694,1.88659,-0.04445
196,15.5257,1.89276,-0.0444269
196.6,15.5822,1.89132,-0.0470344
197.2,15.6395,1.89791,-0.0471019
197.8,15.6949,1.89491,-0.0477393
198.4,15.751,1.89494,-0.04774
199,15.807,1.89471,-0.04774
199.6,15.8636,1.90057,-0.0477404
200.2,15.9201,1.89835,-0.0483947
200.8,15.9764,1.90496,-0.0496957
201.4,16.0341,1.90508,-0.0499034
202,16.09,1.90385,-0.0512894
202.6,16.1462,1.90748,-0.0523602
203.2,16.2027,1.90832,-0.0523651
203.8,16.2591,1.9107,-0.0509416
204.4,16.3155,1.91497,-0.05236
205,16.3715,1.91842,-0.0523051
205.6,16.4281,1.91969,-0.0530201
206.2,16.4854,1.92818,-0.053717
206.8,16.5416,1.92058,-0.0536799
207.4,16.5977,1.92195,-0.0536935
208,16.6541,1.9211,-0.054986
208.6,16.7111,1.92837,-0.0563035
209.2,16.767,1.92524,-0.0563109
209.8,16.8228,1.93265,-0.0576174
210.4,16.8804,1.92672,-0.0576301
211,16.9339,1.93486,-0.0577105
211.6,16.9927,1.93167,-0.0585858
212.2,17.0494,1.93146,-0.0602888
212.8,17.1041,1.9374,-0.0615811
213.4,17.1623,1.93945,-0.0628934
214,17.2178,1.94516,-0.0642103
214.6,17.2751,1.94259,-0.0642101
215.2,17.3314,1.94802,-0.0655215
215.8,17.3877,1.9542,-0.0655295
216.4,17.4447,1.94529,-0.0666349
217,17.5011,1.94651,-0.0668669
217.6,17.557,1.95287,-0.0694785
218.2,17.6126,1.95794,-0.06948
218.8,17.6706,1.95339,-0.0702235
219.4,17.7277,1.95585,-0.070802
220,17.7831,1.95443,-0.0721202
220.6,17.8412,1.95542,-0.072119
221.2,17.8962,1.95846,-0.0734393
221.8,17.9533,1.96301,-0.0747504
222.4,18.0097,1.96696,-0.0746404
223,18.0666,1.96847,-0.0773885
223.6,18.1224,1.96687,-0.0773454
224.2,18.1788,1.96924,-0.0787019
224.8,18.2358,1.97169,-0.0800242
225.4,18.2918,1.96836,-0.0813424
226,18.3485,1.97936,-0.0803989
226.6,18.405,1.97285,-0.0813401
227.2,18.4607,1.97578,-0.0813615
227.8,18.5174,1.97887,-0.0840753
228.4,18.5738,1.98149,-0.0867616
229,18.6307,1.98277,-0.0867163
229.6,18.6874,1.99057,-0.0879192
230.2,18.7413,1.98566,-0.090686
230.8,18.7998,1.98623,-0.0920219
231.4,18.857,1.98642,-0.0933499
232,18.9127,1.98923,-0.0946335
232.6,18.9698,1.99466,-0.0959788
233.2,19.0261,1.98873,-0.0972866
233.8,19.0826,1.99427,-0.0998893
234.4,19.1401,1.98795,-0.0998959
235,19.1967,1.99633,-0.101288
235.6,19.2527,2.00048,-0.102641
236.2,19.3087,2.00455,-0.103993
236.8,19.3657,2.00718,-0.1055
237.4,19.4228,2.00621,-0.108128
238,19.4785,2.00925,-0.109284
238.6,19.5355,2.00585,-0.111914
239.2,19.5924,2.00307,-0.112044
239.8,19.6482,2.00709,-0.115053
240.4,19.7062,2.01715,-0.117805
241,19.7613,2.01637,-0.119021
241.6,19.8183,2.01669,-0.119306
242.2,19.8747,2.01906,-0.120748
242.8,19.9316,2.02139,-0.123533
243.4,19.9879,2.02015,-0.126659
244,20.0442,2.01657,-0.129251
244.6,20.1011,2.01914,-0.130513
245.2,20.1564,2.01963,-0.131879
245.8,20.2153,2.02902,-0.133244
246.4,20.2717,2.02572,-0.137098
247,20.3285,2.02972,-0.138543
247.6,20.3847,2.03447,-0.139844
248.2,20.4411,2.03696,-0.142168
248.8,20.4979,2.03273,-0.144246
249.4,20.5555,2.03433,-0.146261
250,20.6113,2.03235,-0.14892
250.6,20.6675,2.03089,-0.150624
251.2,20.7258,2.04151,-0.152561
251.8,20.7819,2.03459,-0.154951
252.4,20.8379,2.03451,-0.15657
253,20.895,2.03348,-0.159757
253.6,20.9504,2.03086,-0.162558
254.2,21.0075,2.02869,-0.163109
254.8,21.0641,2.03799,-0.16589
255.4,21.1204,2.03444,-0.168073
256,21.1773,2.03236,-0.171201
256.6,21.2337,2.03589,-0.173988
257.2,21.2898,2.03208,-0.176574
257.8,21.3473,2.03472,-0.178095
258.4,21.4035,2.03433,-0.179705
259,21.4599,2.03751,-0.182937
259.6,21.5159,2.0325,-0.185974
260.2,21.5738,2.03201,-0.187727
260.8,21.6305,2.0372,-0.191696
261.4,21.6862,2.03418,-0.194363
262,21.7417,2.03229,-0.196017
262.6,21.8,2.03414,-0.198883
263.2,21.8559,2.03686,-0.202264
263.8,21.9127,2.02579,-0.205455
264.4,21.9693,2.03439,-0.20866
265,22.0271,2.03587,-0.211465
265.6,22.0824,2.03789,-0.21282
266.2,22.1388,2.03052,-0.215736
266.8,22.1954,2.03395,-0.218026
267.4,22.252,2.03239,-0.220422
268,22.3093,2.03067,-0.222122
268.6,22.3655,2.03268,-0.224789
269.2,22.4222,2.03427,-0.227417
269.8,22.4795,2.03263,-0.231109
270.4,22.5357,2.02716,-0.233524
271,22.5925,2.0284,-0.237446
271.6,22.6487,2.02457,-0.240024
272.2,22.7046,2.01753,-0.242782
272.8,22.7616,2.0217,-0.245517
273.4,22.8178,2.01924,-0.247006
274,22.8754,2.01869,-0.2498
274.6,22.9312,2.01443,-0.252508
275.2,22.9873,2.0125,-0.254262
275.8,23.0441,2.00701,-0.257415
276.4,23.1008,2.01166,-0.259977
277,23.1576,2.01593,-0.261527
277.6,23.2139,2.01605,-0.263763
278.2,23.2705,2.01317,-0.266992
278.8,23.3267,2.00864,-0.270308
279.4,23.3845,2.00776,-0.27279
280,23.4408,1.99812,-0.274239
280.6,23.4978,2.00119,-0.277616
281.2,23.5542,1.99006,-0.277802
281.8,23.6116,1.98737,-0.280458
282.4,23.6659,1.9887,-0.283056
283,23.724,1.99045,-0.285962
283.6,23.7809,1.98975,-0.288267
284.2,23.8378,1.98081,-0.290401
284.8,23.8945,1.9808,-0.29276
285.4,23.9515,1.98274,-0.295709
286,24.0083,1.98091,-0.297318
286.6,24.0645,1.97642,-0.30033
287.2,24.1217,1.97333,-0.301665
287.8,24.1779,1.96722,-0.302939
288.4,24.2352,1.95942,-0.305425
289,24.2924,1.95687,-0.307317
289.6,24.3497,1.96224,-0.31047
290.2,24.4054,1.95429,-0.312988
290.8,24.4634,1.95178,-0.315067
291.4,24.5201,1.9496,-0.316574
292,24.5772,1.94223,-0.319412
292.6,24.6354,1.94354,-0.320543
293.2,24.6909,1.93002,-0.322199
293.8,24.7481,1.93166,-0.322132
294.4,24.8042,1.92666,-0.325026
295,24.8612,1.92262,-0.327361
295.6,24.9191,1.91778,-0.329036
296.2,24.9759,1.90675,-0.330642
296.8,25.0329,1.90917,-0.333289
297.4,25.0898,1.907,-0.334828
298,25.1475,1.90597,-0.336142
298.6,25.2036,1.90156,-0.337461
299.2,25.2615,1.89633,-0.339154
299.8,25.3181,1.9006,-0.341884
300.4,25.3758,1.89144,-0.344111
301,25.4316,1.88884,-0.345364
301.6,25.4892,1.88679,-0.346721
302.2,25.547,1.88679,-0.346988
302.8,25.6043,1.87583,-0.349412
303.4,25.6605,1.87808,-0.351225
304,25.7182,1.86953,-0.353977
304.6,25.7751,1.86555,-0.354896
305.2,25.8325,1.86654,-0.356135
305.8,25.8901,1.86524,-0.357858
306.4,25.947,1.86414,-0.359976
307,26.0035,1.85424,-0.361505
307.6,26.0603,1.85528,-0.363915
308.2,26.1185,1.85103,-0.365189
308.8,26.1752,1.85322,-0.366454
309.4,26.232,1.84688,-0.367794
310,26.2894,1.84599,-0.370393
310.6,26.3468,1.84263,-0.370431
311.2,26.4031,1.83526,-0.373038
311.8,26.4609,1.83293,-0.374393
312.4,26.518,1.82746,-0.375926
313,26.5752,1.82319,-0.377507
313.6,26.633,1.81425,-0.379623
314.2,26.6907,1.81332,-0.379981
314.8,26.7479,1.7986,-0.381239
315.4,26.8063,1.79169,-0.384574
316,26.8633,1.78681,-0.385668
316.6,26.9203,1.77971,-0.388532
317.2,26.9781,1.75962,-0.389671
317.8,27.0362,1.75907,-0.391603
318.4,27.0939,1.74646,-0.393836
319,27.1512,1.74255,-0.395413
319.6,27.2078,1.73023,-0.396738
320.2,27.2664,1.71943,-0.398038
320.8,27.3241,1.7141,-0.400115
321.4,27.3816,1.70536,-0.402152
322,27.4392,1.68823,-0.403998
322.6,27.498,1.68654,-0.406424
323.2,27.5546,1.67033,-0.407673
323.8,27.6122,1.66134,-0.41042
324.4,27.6706,1.64716,-0.412312
325,27.7271,1.63546,-0.414958
325.6,27.7844,1.61976,-0.416284
326.2,27.8423,1.60939,-0.418507
326.8,27.8997,1.5963,-0.420784
327.4,27.9577,1.57785,-0.423033
328,28.0151,1.56285,-0.425396
328.6,28.0727,1.55156,-0.42776
329.2,28.1296,1.53252,-0.431048
329.8,28.1873,1.5251,-0.432657
330.4,28.2451,1.51086,-0.434087
331,28.3029,1.49997,-0.436817
331.6,28.3591,1.48436,-0.438461
332.2,28.4164,1.46528,-0.441099
332.8,28.4743,1.45369,-0.444836
333.4,28.5316,1.42767,-0.447322
334,28.5889,1.40825,-0.450394
334.6,28.6463,1.37936,-0.452801
335.2,28.7027,1.37524,-0.455684
335.8,28.7607,1.35174,-0.458519
336.4,28.8187,1.33669,-0.461863
337,28.8757,1.32096,-0.465569
337.6,28.9333,1.29894,-0.469429
338.2,28.9893,1.2784,-0.472935
338.8,29.0482,1.25747,-0.477086
339.4,29.1048,1.23515,-0.480365
340,29.1627,1.21899,-0.483243
340.6,29.2201,1.20008,-0.487309
341.2,29.2774,1.17321,-0.491464
341.8,29.3338,1.16217,-0.495248
342.4,29.3915,1.13808,-0.498796
343,29.4487,1.11081,-0.503078
343.6,29.5062,1.08953,-0.507285
344.2,29.5633,1.07417,-0.511479
344.8,29.619,1.05325,-0.516403
345.4,29.6772,1.03353,-0.521738
346,29.7353,1.0039,-0.525945
346.6,29.7927,0.983632,-0.530995
347.2,29.8498,0.965082,-0.536296
347.8,29.907,0.941493,-0.542013
348.4,29.9646,0.922889,-0.547414
349,30.0222,0.902367,-0.55311
349.6,30.0797,0.881735,-0.559432
350.2,30.1366,0.857288,-0.565703
350.8,30.1933,0.839931,-0.573708
351.4,30.2509,0.821789,-0.579817
352,30.3094,0.790955,-0.586324
352.6,30.3655,0.77354,-0.593388
353.2,30.4237,0.76359,-0.60154
353.8,30.4818,0.756642,-0.608914
354.4,30.5365,0.732,-0.616598
355,30.5966,0.719731,-0.625007
355.6,30.6537,0.69208,-0.6331
356.2,30.712,0.689303,-0.642071
356.8,30.7689,0.666949,-0.650528
357.4,30.8267,0.657735,-0.659338
358,30.8844,0.638817,-0.669387
358.6,30.9411,0.629553,-0.678807
359.2,30.9986,0.622112,-0.688973
359.8,31.0572,0.617223,-0.700871
360.4,31.1131,0.608884,-0.710935
361,31.1719,0.602383,-0.721527
361.6,31.23,0.603891,-0.732975
362.2,31.2872,0.595518,-0.745206
362.8,31.3459,0.59504,-0.757217
363.4,31.4023,0.587674,-0.770784
364,31.4604,0.584729,-0.782587
364.6,31.5186,0.582962,-0.796362
365.2,31.5767,0.593661,-0.809646
365.8,31.636,0.59108,-0.825221
366.4,31.6931,0.590579,-0.839263
367,31.7502,0.60203,-0.854193
367.6,31.8084,0.610423,-0.870352
368.2,31.8655,0.620067,-0.886286
368.8,31.9244,0.630773,-0.903268
369.4,31.9825,0.643372,-0.917003
370,32.0406,0.668407,-0.935731
370.6,32.0969,0.673627,-0.952296
371.2,32.156,0.691157,-0.971631
371.8,32.2157,0.707535,-0.989935
372.4,32.2737,0.72375,-1.00889
373,32.3314,0.748047,-1.02799
373.6,32.3892,0.764722,-1.04701
374.2,32.4482,0.791268,-1.06875
374.8,32.5058,0.811922,-1.08917
375.4,32.564,0.838812,-1.10867
376,32.6215,0.863419,-1.12893
376.6,32.6803,0.894639,-1.15071
377.2,32.739,0.915054,-1.17186
377.8,32.7969,0.940231,-1.19368
378.4,32.8551,0.98089,-1.21457
379,32.9134,0.999295,-1.2368
379.6,32.9719,1.01875,-1.26023
380.2,33.0304,1.04505,-1.28151
380.8,33.088,1.07508,-1.30436
381.4,33.1468,1.10344,-1.32676
382,33.2052,1.12111,-1.34995
382.6,33.2632,1.15307,-1.37173
383.2,33.3225,1.17172,-1.39495
383.8,33.3816,1.20335,-1.41735
384.4,33.4384,1.22579,-1.44016
385,33.4972,1.24912,-1.46333
385.6,33.5559,1.27979,-1.48654
386.2,33.6151,1.29941,-1.50778
386.8,33.673,1.32579,-1.52973
387.4,33.7322,1.34619,-1.55258
388,33.7901,1.37076,-1.57338
388.6,33.8485,1.38809,-1.59585
389.2,33.9069,1.40839,-1.61719
389.8,33.9642,1.41849,-1.63799
390.4,34.0232,1.44596,-1.65902
391,34.0818,1.45726,-1.67884
391.6,34.1407,1.47474,-1.69651
392.2,34.1989,1.49386,-1.71675
392.8,34.2569,1.5009,-1.73444
393.4,34.3153,1.51783,-1.75391
394,34.3741,1.53761,-1.77115
394.6,34.4327,1.5552,-1.79039
395.2,34.4907,1.55297,-1.80574
395.8,34.5484,1.56336,-1.82253
396.4,34.6054,1.5701,-1.83938
397,34.6654,1.59187,-1.85681
397.6,34.7248,1.59651,-1.87354
398.2,34.7826,1.60324,-1.8879
398.8,34.8395,1.61159,-1.90287
399.4,34.8988,1.61778,-1.91758
400,34.9568,1.62874,-1.9318
400.6,35.0161,1.63331,-1.94491
401.2,35.0746,1.63856,-1.95998
401.8,35.1324,1.64407,-1.97309
402.4,35.1916,1.65513,-1.98659
403,35.2496,1.65437,-1.9994
403.6,35.3082,1.66975,-2.01118
404.2,35.3668,1.66521,-2.02458
404.8,35.4238,1.67489,-2.03514
405.4,35.4831,1.6815,-2.04685
406,35.5384,1.68396,-2.05758
406.6,35.5989,1.69228,-2.06948
407.2,35.658,1.69657,-2.08166
407.8,35.7141,1.70013,-2.09127
408.4,35.7753,1.6994,-2.10119
409,35.8334,1.69925,-2.11181
409.6,35.8909,1.7052,-2.12236
410.2,35.9496,1.70854,-2.13096
410.8,36.0087,1.71455,-2.14256
411.4,36.0671,1.72037,-2.15151
412,36.1246,1.71525,-2.16015
412.6,36.1836,1.72245,-2.16959
413.2,36.2424,1.72662,-2.17871
413.8,36.3005,1.73146,-2.18791
414.4,36.3582,1.73398,-2.1984
415,36.4167,1.74471,-2.20906
415.6,36.4762,1.75094,-2.2168
416.2,36.5347,1.75613,-2.22649
416.8,36.5935,1.76885,-2.23565
417.4,36.6509,1.7698,-2.24399
418,36.7102,1.77573,-2.25343
418.6,36.769,1.7857,-2.26289
419.2,36.8276,1.79541,-2.2714
419.8,36.8861,1.80766,-2.27926
420.4,36.944,1.80628,-2.28696
421,37.0014,1.81001,-2.29453
421.6,37.0614,1.81538,-2.30477
422.2,37.1196,1.81683,-2.31334
422.8,37.1791,1.81943,-2.32261
423.4,37.2376,1.83608,-2.33189
424,37.2937,1.83212,-2.33936
424.6,37.355,1.84279,-2.34795
425.2,37.4135,1.84378,-2.35797
425.8,37.4726,1.85682,-2.36609
426.4,37.5304,1.86181,-2.37375
427,37.589,1.86889,-2.38368
427.6,37.6471,1.87347,-2.39056
428.2,37.7062,1.88092,-2.40065
428.8,37.7643,1.88644,-2.41045
429.4,37.8227,1.89147,-2.41984
430,37.8818,1.89896,-2.42901
430.6,37.9404,1.91362,-2.43764
431.2,37.999,1.91978,-2.44607
431.8,38.0554,1.92288,-2.45533
432.4,38.116,1.92993,-2.46496
433,38.1754,1.94251,-2.47478
433.6,38.2329,1.94714,-2.48496
434.2,38.2918,1.95743,-2.49326
434.8,38.3514,1.96714,-2.50237
435.4,38.4096,1.96597,-2.51259
436,38.4686,1.98073,-2.52171
436.6,38.5278,1.98503,-2.53179
437.2,38.5858,1.99377,-2.54144
437.8,38.645,2.00326,-2.55044
438.4,38.7042,2.00866,-2.55889
439,38.763,2.01585,-2.56997
439.6,38.8215,2.01819,-2.57871
440.2,38.8805,2.03031,-2.59013
440.8,38.9395,2.03742,-2.60232
441.4,38.9983,2.04432,-2.61279
442,39.0569,2.05647,-2.62201
442.6,39.1155,2.05598,-2.6333
443.2,39.1741,2.06544,-2.6428
443.8,39.2335,2.06369,-2.65284
444.4,39.2909,2.07424,-2.66263
445,39.3518,2.08297,-2.67305
445.6,39.4098,2.08685,-2.68437
446.2,39.4681,2.09588,-2.69499
446.8,39.5272,2.09893,-2.7053
447.4,39.5862,2.10803,-2.71673
448,39.6446,2.11634,-2.72876
448.6,39.7039,2.11709,-2.73846
449.2,39.7623,2.12229,-2.74978
449.8,39.8204,2.13475,-2.75934
450.4,39.8796,2.14488,-2.77057
451,39.9371,2.14779,-2.78106
451.6,39.9986,2.14769,-2.79357
452.2,40.0559,2.15397,-2.80451
452.8,40.1159,2.15337,-2.81539
453.4,40.1741,2.15125,-2.82737
454,40.2327,2.15365,-2.83864
454.6,40.2915,2.16161,-2.8502
455.2,40.351,2.1666,-2.86221
455.8,40.4107,2.16705,-2.87279
456.4,40.4687,2.17367,-2.88454
457,40.5263,2.1751,-2.89578
457.6,40.5867,2.1803,-2.90757
458.2,40.6453,2.17062,-2.91907
458.8,40.7049,2.1754,-2.93235
459.4,40.7629,2.17212,-2.94378
460,40.822,2.17558,-2.95327
460.6,40.8801,2.17099,-2.96465
461.2,40.9395,2.16554,-2.97657
461.8,40.9984,2.16036,-2.98799
462.4,41.0571,2.16308,-2.9985
463,41.1169,2.1581,-3.00851
463.6,41.1748,2.15693,-3.02035
464.2,41.2346,2.15443,-3.03087
464.8,41.2939,2.14573,-3.04251
465.4,41.3524,2.14507,-3.05252
466,41.4123,2.12802,-3.06436
466.6,41.4687,2.12503,-3.0747
467.2,41.5297,2.11265,-3.08462
467.8,41.586,2.10032,-3.09477
468.4,41.6472,2.08929,-3.10525
469,41.7059,2.08169,-3.11517
469.6,41.7649,2.06429,-3.12619
470.2,41.8225,2.05878,-3.13419
470.8,41.8822,2.03463,-3.14334
471.4,41.9408,2.0293,-3.15421
472,41.9994,2.01092,-3.16249
472.6,42.0581,2.00029,-3.17034
473.2,42.1168,1.98148,-3.17944
473.8,42.1754,1.96062,-3.18529
474.4,42.2344,1.92964,-3.19195
475,42.293,1.91029,-3.19894
475.6,42.3505,1.89147,-3.20609
476.2,42.4094,1.86864,-3.21229
476.8,42.4686,1.83648,-3.21846
477.4,42.5276,1.81647,-3.22505
478,42.5856,1.78864,-3.23063
478.6,42.6448,1.7717,-3.23603
479.2,42.7038,1.74463,-3.24059
479.8,42.7622,1.71648,-3.2443
480.4,42.8217,1.6916,-3.24958
481,42.8797,1.66866,-3.25368
481.6,42.9379,1.64034,-3.25759
482.2,42.9978,1.62115,-3.26075
482.8,43.056,1.59686,-3.26225
483.4,43.1144,1.57385,-3.2656
484,43.1739,1.56084,-3.26884
484.6,43.2334,1.54185,-3.27095
485.2,43.2921,1.52361,-3.27297
485.8,43.3515,1.51359,-3.27476
486.4,43.4107,1.49821,-3.27646
487,43.4691,1.49034,-3.27672
487.6,43.5265,1.47213,-3.2777
488.2,43.5863,1.46309,-3.28033
488.8,43.6455,1.44809,-3.28175
489.4,43.7043,1.44504,-3.28346
490,43.7629,1.44324,-3.28436
490.6,43.8223,1.44024,-3.28568
491.2,43.8815,1.42851,-3.28565
491.8,43.9394,1.42789,-3.287
492.4,44.0001,1.4169,-3.28828
493,44.0581,1.40878,-3.28838
493.6,44.1173,1.41542,-3.28963
494.2,44.176,1.41399,-3.29095
494.8,44.2354,1.41615,-3.29193
495.4,44.2949,1.40701,-3.29194
496,44.3533,1.40234,-3.29227
496.6,44.4125,1.40537,-3.29227
497.2,44.4726,1.4069,-3.29358
497.8,44.5321,1.39493,-3.29358
498.4,44.5894,1.40171,-3.29358
499,44.6496,1.39495,-3.29358
499.6,44.7095,1.39694,-3.29359
500.2,44.7669,1.38461,-3.29364
500.8,44.8272,1.39358,-3.29357
501.4,44.8869,1.38914,-3.29493
502,44.9453,1.38838,-3.2951
502.6,45.0049,1.38449,-3.29492
503.2,45.0647,1.38462,-3.29622
503.8,45.1238,1.38836,-3.2972
504.4,45.1832,1.3761,-3.29754
505,45.2421,1.3781,-3.29621
505.6,45.3022,1.38126,-3.2972
506.2,45.3612,1.38468,-3.29766
506.8,45.4197,1.38667,-3.29884
507.4,45.4803,1.38161,-3.29753
508,45.5402,1.38388,-3.29892
508.6,45.5993,1.38366,-3.29885
509.2,45.6587,1.38313,-3.29847
509.8,45.7188,1.38839,-3.29819
510.4,45.7775,1.3922,-3.29819
511,45.837,1.38438,-3.2969
511.6,45.8974,1.3824,-3.2982
512.2,45.9557,1.39349,-3.29819
512.8,46.0151,1.39576,-3.29885
513.4,46.0756,1.39274,-3.29952
514,46.1331,1.39686,-3.30083
514.6,46.1939,1.39307,-3.30083
515.2,46.2528,1.38554,-3.29951
515.8,46.3116,1.38015,-3.29951
516.4,46.3716,1.37941,-3.29945
517,46.4308,1.37608,-3.30083
517.6,46.4905,1.37865,-3.29951
518.2,46.5492,1.37732,-3.3005
518.8,46.6092,1.37743,-3.30082
519.4,46.6689,1.3761,-3.29977
520,46.7289,1.37535,-3.29984
520.6,46.7883,1.37302,-3.30081
521.2,46.8476,1.37012,-3.30084
521.8,46.9067,1.37712,-3.30214
522.4,46.9652,1.37359,-3.30214
523,47.0258,1.3731,-3.29976
523.6,47.0861,1.37296,-3.29984
524.2,47.1442,1.37085,-3.30086
524.8,47.2023,1.37012,-3.30116
525.4,47.2618,1.36803,-3.30116
526,47.321,1.37012,-3.30247
526.6,47.3816,1.37307,-3.30247
527.2,47.4405,1.38207,-3.30247
527.8,47.5001,1.37428,-3.30247
528.4,47.5599,1.38253,-3.30313
529,47.6181,1.38754,-3.30313
529.6,47.6775,1.39794,-3.30313
530.2,47.7369,1.39266,-3.3025
530.8,47.7958,1.39666,-3.30248
531.4,47.8534,1.39445,-3.30248
532,47.9145,1.39242,-3.30314
532.6,47.9741,1.39874,-3.30314
533.2,48.0333,1.39378,-3.30314
533.8,48.092,1.40521,-3.30314
534.4,48.1518,1.40478,-3.30315
535,48.2102,1.39916,-3.30379
535.6,48.2702,1.40558,-3.30379
536.2,48.3292,1.39741,-3.30379
536.8,48.3886,1.39498,-3.3038
537.4,48.448,1.39729,-3.30445
538,48.506,1.39196,-3.30445
538.6,48.5665,1.39479,-3.30382
539.2,48.6259,1.3876,-3.30313
539.8,48.6867,1.39025,-3.30306
540.4,48.7449,1.39034,-3.30446
541,48.8055,1.384,-3.30379
541.6,48.8641,1.38236,-3.3038
542.2,48.9236,1.37681,-3.30577
542.8,48.9833,1.38117,-3.3061
543.4,49.0424,1.38687,-3.30511
544,49.1032,1.3817,-3.30478
544.6,49.1618,1.37415,-3.30478
545.2,49.221,1.3758,-3.30536
545.8,49.2807,1.37228,-3.30544
546.4,49.3412,1.36453,-3.30544
547,49.4005,1.37741,-3.30543
547.6,49.4616,1.37204,-3.30379
548.2,49.5196,1.36337,-3.3051
548.8,49.5802,1.36328,-3.30412
549.4,49.6393,1.36844,-3.30514
550,49.6994,1.36287,-3.3061
550.6,49.7586,1.36856,-3.3061
551.2,49.8189,1.36531,-3.3061
551.8,49.879,1.36529,-3.3061
552.4,49.9383,1.3634,-3.3061
553,49.9979,1.36645,-3.3061
553.6,50.0578,1.36085,-3.30642
554.2,50.117,1.36014,-3.30643
554.8,50.1773,1.3616,-3.30645
555.4,50.237,1.35893,-3.30774
556,50.297,1.35306,-3.30774
556.6,50.3568,1.35253,-3.30774
557.2,50.416,1.35865,-3.30774
557.8,50.4756,1.34499,-3.30759
558.4,50.536,1.35034,-3.30642
559,50.5959,1.34755,-3.30642
559.6,50.6544,1.34643,-3.30708
560.2,50.7139,1.33825,-3.30708
560.8,50.7743,1.33514,-3.30708
561.4,50.8335,1.33587,-3.30708
562,50.893,1.34118,-3.30708
562.6,50.9521,1.33055,-3.3084
563.2,51.0132,1.33366,-3.3084
563.8,51.0721,1.33385,-3.3084
564.4,51.1319,1.33451,-3.30838
565,51.192,1.33334,-3.30708
565.6,51.2519,1.33422,-3.30709
566.2,51.3118,1.33469,-3.30708
566.8,51.3718,1.33407,-3.30708
567.4,51.4316,1.3235,-3.30708
568,51.4923,1.32935,-3.30908
568.6,51.5503,1.33123,-3.31019
569.2,51.6103,1.32729,-3.30902
569.8,51.6709,1.32065,-3.30906
570.4,51.7308,1.3326,-3.30906
571,51.7902,1.33595,-3.30903
571.6,51.8499,1.33101,-3.30774
572.2,51.9107,1.32461,-3.30644
572.8,51.9706,1.3298,-3.30645
573.4,52.0295,1.32992,-3.30838
574,52.0899,1.32574,-3.30839
574.6,52.1493,1.32846,-3.30709
575.2,52.2093,1.32609,-3.30709
575.8,52.2689,1.32342,-3.3071
576.4,52.3302,1.32872,-3.30808
577,52.3898,1.324,-3.30808
577.6,52.4495,1.32225,-3.30808
578.2,52.51,1.32182,-3.30808
578.8,52.5676,1.32875,-3.30667
579.4,52.629,1.33294,-3.30673
580,52.688,1.33018,-3.30709
580.6,52.7491,1.325,-3.30709
581.2,52.8089,1.32907,-3.30709
581.8,52.8689,1.32772,-3.3084
582.4,52.9286,1.32902,-3.3084
583,52.9884,1.33266,-3.3084
583.6,53.0461,1.32768,-3.3084
584.2,53.1084,1.32613,-3.30977
584.8,53.1687,1.3275,-3.3084
585.4,53.2278,1.32459,-3.3084
586,53.2877,1.32592,-3.30841
586.6,53.3461,1.32623,-3.30972
587.2,53.4076,1.33113,-3.30972
587.8,53.4668,1.32806,-3.30972
588.4,53.5268,1.32649,-3.30972
589,53.5872,1.32341,-3.30972
589.6,53.6473,1.32168,-3.30972
590.2,53.7074,1.32284,-3.3084
590.8,53.767,1.32277,-3.3084
591.4,53.8279,1.31918,-3.3084
592,53.8874,1.31161,-3.30846
592.6,53.948,1.3191,-3.30939
593.2,54.0077,1.31775,-3.30939
593.8,54.0674,1.30595,-3.30939
594.4,54.1275,1.31521,-3.31038
595,54.1871,1.31362,-3.31038
595.6,54.2473,1.31498,-3.31038
596.2,54.3073,1.32353,-3.30938
596.8,54.3673,1.32425,-3.30939
597.4,54.4283,1.31438,-3.30895
598,54.488,1.30493,-3.30828
598.6,54.5473,1.31086,-3.30939
599.2,54.6071,1.30941,-3.30935
599.8,54.6679,1.31136,-3.31071
600.4,54.7266,1.31157,-3.31074
601,54.7877,1.30879,-3.30972
601.6,54.8475,1.31114,-3.30972
602.2,54.9075,1.30681,-3.30972
602.8,54.9681,1.31317,-3.31099
603.4,55.0285,1.30693,-3.31235
604,55.0888,1.31071,-3.31235
604.6,55.1481,1.31062,-3.31235
605.2,55.2081,1.31491,-3.31235
605.8,55.2683,1.30184,-3.31235
606.4,55.3273,1.30783,-3.31132
607,55.3885,1.31035,-3.31136
607.6,55.446,1.3079,-3.31136
608.2,55.5084,1.31369,-3.31235
608.8,55.5687,1.31554,-3.31104
609.4,55.628,1.31711,-3.3103
610,55.6887,1.32033,-3.31038
610.6,55.7484,1.32017,-3.31038
611.2,55.809,1.31531,-3.31038
611.8,55.8681,1.31693,-3.31043
612.4,55.9284,1.3171,-3.30917
613,55.9894,1.32259,-3.31006
613.6,56.0492,1.32225,-3.3117
614.2,56.1094,1.32536,-3.3117
614.8,56.1703,1.32375,-3.3117
615.4,56.2293,1.32947,-3.3104
616,56.2892,1.32672,-3.31171
616.6,56.3503,1.33328,-3.3117
617.2,56.4089,1.33209,-3.313
617.8,56.4698,1.33784,-3.31302
618.4,56.5311,1.32914,-3.31302
619,56.5904,1.33235,-3.31303
619.6,56.6508,1.33687,-3.3117
620.2,56.7109,1.34085,-3.3117
620.8,56.771,1.33363,-3.3117
621.4,56.8316,1.34015,-3.3117
622,56.8918,1.34411,-3.3117
622.6,56.9521,1.33437,-3.3117
623.2,57.012,1.33656,-3.31256
623.8,57.0723,1.33458,-3.31301
624.4,57.1324,1.33732,-3.31198
625,57.1923,1.33927,-3.31202
625.6,57.2526,1.34138,-3.31202
626.2,57.3132,1.34467,-3.31202
626.8,57.3736,1.35119,-3.31202
627.4,57.4339,1.34505,-3.31334
628,57.4933,1.34344,-3.31334
628.6,57.5539,1.34527,-3.31334
629.2,57.6143,1.34612,-3.3131
629.8,57.6751,1.34091,-3.31169
630.4,57.7351,1.34455,-3.313
631,57.7947,1.33232,-3.31301
631.6,57.8551,1.33679,-3.31301
632.2,57.9152,1.34436,-3.31233
632.8,57.9752,1.33318,-3.3125
633.4,58.0351,1.33602,-3.313
634,58.0956,1.33126,-3.31169
634.6,58.1561,1.34238,-3.31301
635.2,58.2155,1.34453,-3.31301
635.8,58.2751,1.34719,-3.313
636.4,58.3354,1.3473,-3.31169
637,58.396,1.35773,-3.31298
637.6,58.4555,1.34341,-3.31297
638.2,58.5156,1.34761,-3.31532
638.8,58.5759,1.34495,-3.31565
639.4,58.6359,1.34284,-3.31565
640,58.6964,1.34369,-3.31433
640.6,58.7564,1.3513,-3.31416
641.2,58.8158,1.34144,-3.31334
641.8,58.877,1.34184,-3.31405
642.4,58.937,1.33969,-3.31403
643,58.9969,1.34391,-3.31467
643.6,59.0577,1.3483,-3.31466
644.2,59.1177,1.34906,-3.31466
644.8,59.1785,1.35005,-3.31463
645.4,59.2379,1.35771,-3.31368
646,59.2977,1.35477,-3.31368
646.6,59.3591,1.36089,-3.31368
647.2,59.4191,1.35755,-3.31353
647.8,59.4795,1.35556,-3.31235
648.4,59.5406,1.35658,-3.31499
649,59.5995,1.35656,-3.31499
649.6,59.6607,1.36491,-3.31499
650.2,59.7223,1.36863,-3.31499
650.8,59.7824,1.36267,-3.31499
651.4,59.8427,1.36498,-3.31369
652,59.9031,1.36898,-3.31367
652.6,59.9635,1.36763,-3.31367
653.2,60.024,1.37252,-3.31366
653.8,60.0853,1.37081,-3.31433
654.4,60.1451,1.36487,-3.31433
655,60.2066,1.37368,-3.31433
655.6,60.2663,1.37761,-3.31433
656.2,60.3272,1.3745,-3.31502
656.8,60.3866,1.37683,-3.31499
657.4,60.4485,1.38832,-3.31631
658,60.5084,1.38654,-3.31631
658.6,60.569,1.38805,-3.31632
659.2,60.6293,1.39948,-3.31401
659.8,60.6903,1.39592,-3.314
660.4,60.75,1.3953,-3.31528
661,60.8108,1.40097,-3.31729
661.6,60.8704,1.3988,-3.31729
662.2,60.9313,1.39273,-3.31697
662.8,60.9919,1.3954,-3.31598
663.4,61.0536,1.40092,-3.31597
664,61.1132,1.40784,-3.31597
664.6,61.1739,1.40815,-3.31465
665.2,61.2326,1.41075,-3.31466
665.8,61.2941,1.40729,-3.31466
666.4,61.3546,1.41134,-3.31466
667,61.4144,1.41048,-3.31335
667.6,61.4742,1.40614,-3.31336
668.2,61.535,1.41363,-3.31467
668.8,61.5947,1.41536,-3.31564
669.4,61.6554,1.42103,-3.31561
670,61.7156,1.41448,-3.31597
670.6,61.7761,1.4184,-3.31598
671.2,61.837,1.42368,-3.31663
671.8,61.8963,1.41833,-3.31663
672.4,61.9566,1.41651,-3.31663
673,62.0172,1.42058,-3.31673
673.6,62.0774,1.42667,-3.31729
674.2,62.1372,1.42935,-3.31729
674.8,62.1974,1.43274,-3.31594
675.4,62.2595,1.43515,-3.31598
676,62.3189,1.43684,-3.31591
676.6,62.3795,1.42934,-3.31802
677.2,62.4406,1.42969,-3.31795
677.8,62.5008,1.43289,-3.31711
678.4,62.5607,1.42996,-3.31642
679,62.6211,1.44043,-3.31598
679.6,62.6823,1.44508,-3.31598
680.2,62.7428,1.44269,-3.3173
680.8,62.8032,1.4527,-3.3173
681.4,62.8635,1.45395,-3.3173
682,62.9247,1.45742,-3.3173
682.6,62.9851,1.44934,-3.3173
683.2,63.046,1.45969,-3.31861
683.8,63.1063,1.45633,-3.31861
684.4,63.1667,1.45551,-3.3179
685,63.2275,1.45414,-3.31763
685.6,63.2883,1.45718,-3.31664
686.2,63.3463,1.45422,-3.31665
686.8,63.409,1.45992,-3.31686
687.4,63.4701,1.4669,-3.31663
688,63.5305,1.46487,-3.31663
688.6,63.5906,1.47346,-3.31663
689.2,63.652,1.47273,-3.31663
689.8,63.7123,1.47184,-3.31663
690.4,63.7732,1.47169,-3.31531
691,63.8327,1.47017,-3.31532
691.6,63.8935,1.47322,-3.31663
692.2,63.9543,1.47642,-3.31663
692.8,64.0153,1.48553,-3.31532
693.4,64.0754,1.48302,-3.31532
694,64.1364,1.47603,-3.31669
694.6,64.1972,1.47599,-3.31663
695.2,64.2574,1.47758,-3.31529
695.8,64.3188,1.48393,-3.31532
696.4,64.3785,1.48699,-3.31532
697,64.4395,1.48998,-3.31532
697.6,64.5007,1.4947,-3.31532
698.2,64.5609,1.499,-3.31602
698.8,64.6211,1.50611,-3.31796
699.4,64.6823,1.50246,-3.31796
700,64.7418,1.50293,-3.31803
700.6,64.8034,1.49822,-3.31763
701.2,64.8638,1.49918,-3.31763
701.8,64.9239,1.49687,-3.31763
702.4,64.986,1.49395,-3.31763
703,65.0456,1.49494,-3.31665
703.6,65.1074,1.50059,-3.31664
704.2,65.1675,1.50377,-3.31664
704.8,65.2272,1.49871,-3.31664
705.4,65.2867,1.49761,-3.31696
706,65.3489,1.49378,-3.31699
706.6,65.4101,1.49426,-3.31828
707.2,65.4709,1.49209,-3.31796
707.8,65.531,1.49722,-3.31706
708.4,65.5912,1.49089,-3.31565
709,65.6524,1.49645,-3.3155
709.6,65.7143,1.49422,-3.31828
710.2,65.7746,1.48566,-3.31829
710.8,65.8353,1.48512,-3.31631
711.4,65.8958,1.48689,-3.3163
712,65.9571,1.47949,-3.31656
712.6,66.0171,1.48665,-3.31762
713.2,66.0777,1.47478,-3.31762
713.8,66.1384,1.47587,-3.31762
714.4,66.1997,1.47732,-3.31631
715,66.2607,1.48166,-3.31763
715.6,66.3216,1.48141,-3.31894
716.2,66.3826,1.47389,-3.31929
716.8,66.443,1.47679,-3.31927
717.4,66.5042,1.47716,-3.319
718,66.5654,1.48023,-3.31795
718.6,66.6244,1.47974,-3.31731
719.2,66.6848,1.4829,-3.31795
719.8,66.7465,1.48552,-3.31796
720.4,66.8069,1.48744,-3.31794
721,66.8685,1.48158,-3.31664
721.6,66.9287,1.47399,-3.31664
722.2,66.9895,1.47835,-3.31727
722.8,67.0499,1.47382,-3.31897
723.4,67.111,1.46956,-3.31894
724,67.1714,1.46798,-3.31874
724.6,67.2314,1.46403,-3.31796
725.2,67.2916,1.45734,-3.31797
725.8,67.3534,1.4603,-3.31927
726.4,67.4135,1.45715,-3.3206
727,67.4741,1.45859,-3.31927
727.6,67.5342,1.45187,-3.31926
728.2,67.5957,1.45031,-3.32024
728.8,67.6553,1.45105,-3.32026
729.4,67.7159,1.45686,-3.31894
730,67.7756,1.44935,-3.31755
730.6,67.837,1.44285,-3.31762
731.2,67.8981,1.44264,-3.31891
731.8,67.9582,1.42947,-3.32033
732.4,68.017,1.43278,-3.32025
733,68.0795,1.42088,-3.32026
733.6,68.1414,1.41312,-3.32026
734.2,68.2014,1.40402,-3.32026
734.8,68.2619,1.39455,-3.32026
735.4,68.3229,1.38808,-3.32026
736,68.3827,1.37943,-3.32026
736.6,68.4423,1.3785,-3.3209
737.2,68.5049,1.36343,-3.32026
737.8,68.5651,1.35897,-3.32026
738.4,68.6261,1.34991,-3.32025
739,68.6872,1.34371,-3.32091
739.6,68.7477,1.32406,-3.32091
740.2,68.8088,1.30943,-3.32091
740.8,68.8697,1.29423,-3.32091
741.4,68.9303,1.27195,-3.32093
742,68.991,1.26604,-3.32157
742.6,69.0522,1.25562,-3.32157
743.2,69.1122,1.24375,-3.32155
743.8,69.1741,1.22968,-3.32089
744.4,69.2337,1.21516,-3.32092
745,69.2951,1.20399,-3.32092
745.6,69.3555,1.19041,-3.32091
746.2,69.4169,1.17362,-3.32158
746.8,69.4777,1.16452,-3.32159
747.4,69.5392,1.15107,-3.32026
748,69.6001,1.13357,-3.32024
748.6,69.6619,1.11997,-3.32026
749.2,69.72,1.1092,-3.32026
749.8,69.7833,1.10014,-3.32026
750.4,69.8441,1.08053,-3.3196
751,69.9057,1.07551,-3.3196
751.6,69.9661,1.05732,-3.31955
752.2,70.0265,1.05065,-3.32092
752.8,70.0883,1.03702,-3.31986
753.4,70.1487,1.0278,-3.32052
754,70.2095,1.01711,-3.32092
754.6,70.268,1.00231,-3.3196
755.2,70.3312,0.986019,-3.32076
755.8,70.3922,0.973376,-3.32091
756.4,70.4535,0.967993,-3.32074
757,70.5143,0.943905,-3.32026
757.6,70.5747,0.946584,-3.32156
758.2,70.6359,0.936064,-3.32158
758.8,70.6961,0.915887,-3.32276
759.4,70.7572,0.904105,-3.32289
760,70.8181,0.89643,-3.32159
760.6,70.8781,0.885169,-3.32066
761.2,70.9404,0.882884,-3.32026
761.8,71.0006,0.866085,-3.32044
762.4,71.0621,0.854978,-3.32125
763,71.1227,0.843283,-3.32125
763.6,71.1838,0.846689,-3.32089
764.2,71.2438,0.831974,-3.3209
764.8,71.3061,0.827302,-3.31994
765.4,71.3669,0.813413,-3.31993
766,71.4279,0.809375,-3.3203
766.6,71.4898,0.805303,-3.32126
767.2,71.5481,0.795858,-3.32158
767.8,71.6111,0.788396,-3.32027
768.4,71.6721,0.779521,-3.32161
769,71.7327,0.788047,-3.32158
769.6,71.7934,0.761572,-3.32153
770.2,71.8522,0.765468,-3.32117
770.8,71.9142,0.758039,-3.32119
771.4,71.9769,0.744403,-3.31991
772,72.0368,0.735872,-3.32091
772.6,72.0982,0.733014,-3.32091
773.2,72.1587,0.717678,-3.32123
773.8,72.2191,0.704451,-3.31992
774.4,72.2816,0.697613,-3.31993
775,72.3418,0.697335,-3.32092
775.6,72.4032,0.691088,-3.32127
776.2,72.4638,0.675669,-3.32026
776.8,72.5248,0.671193,-3.32037
777.4,72.5857,0.66899,-3.32158
778,72.6463,0.665222,-3.32183
778.6,72.7082,0.660623,-3.3229
779.2,72.7682,0.650517,-3.32155
779.8,72.8283,0.639725,-3.32158
780.4,72.8897,0.646403,-3.32158
781,72.9512,0.62984,-3.32223
781.6,73.0131,0.628245,-3.32224
782.2,73.0735,0.623035,-3.32224
782.8,73.1343,0.618656,-3.32294
783.4,73.1949,0.602185,-3.32287
784,73.2558,0.590381,-3.32158
784.6,73.3171,0.594677,-3.32158
785.2,73.3774,0.578673,-3.32158
785.8,73.4378,0.567855,-3.32164
786.4,73.4987,0.554148,-3.32289
787,73.5594,0.547998,-3.32289
787.6,73.6202,0.544213,-3.32143
788.2,73.6803,0.543686,-3.32157
788.8,73.742,0.538947,-3.32157
789.4,73.8028,0.539264,-3.32157
790,73.8648,0.536116,-3.32157