File: 01_Data/Neoprene_SCBA_Face_Seal/STA/N2/10K_min/Neoprene_SCBA_Face_Seal_STA_N2_10KData_250911_R1.csv
Temp./C,Time/min,DSC/(mW/mg),Mass loss/mg
40.0,0.0,0.698906,-0.0206567
40.6,0.0807864,0.709463,-0.0197398
41.2,0.158497,0.731493,-0.0200327
41.8,0.243896,0.748196,-0.0189995
42.4,0.321012,0.760681,-0.0187134
43,0.399358,0.778846,-0.0186538
43.6,0.476266,0.784862,-0.0194397
44.2,0.551836,0.798915,-0.0185915
44.8,0.627766,0.812523,-0.0190221
45.4,0.701406,0.819105,-0.0197591
46,0.775771,0.831947,-0.0199105
46.6,0.849091,0.844447,-0.0196282
47.2,0.923544,0.856523,-0.0194589
47.8,0.996814,0.869766,-0.0203333
48.4,1.06975,0.876176,-0.0205706
49,1.13995,0.880705,-0.0207558
49.6,1.20932,0.889663,-0.0204847
50.2,1.28137,0.901712,-0.020523
50.8,1.35251,0.913393,-0.0196551
51.4,1.42148,0.923695,-0.0204182
52,1.49162,0.93495,-0.0203943
52.6,1.56113,0.950154,-0.0204035
53.2,1.62836,0.967087,-0.0203982
53.8,1.69734,0.975085,-0.0208571
54.4,1.76638,0.992891,-0.0218361
55,1.83322,1.00782,-0.0218506
55.6,1.90031,1.0331,-0.0220729
56.2,1.96846,1.04459,-0.023276
56.8,2.03424,1.06718,-0.0218831
57.4,2.10132,1.09275,-0.0218446
58,2.16829,1.10617,-0.0222466
58.6,2.23354,1.13121,-0.0219071
59.2,2.30053,1.13018,-0.0231492
59.8,2.36504,1.11529,-0.0230457
60.4,2.42721,1.11056,-0.0229922
61,2.49159,1.10234,-0.0250393
61.6,2.55658,1.093,-0.0243617
62.2,2.6221,1.08996,-0.0229739
62.8,2.68387,1.08959,-0.0232279
63.4,2.74747,1.09007,-0.0234755
64,2.81076,1.10333,-0.0246242
64.6,2.87623,1.09373,-0.024362
65.2,2.93877,1.09538,-0.0247015
65.8,3.00143,1.10583,-0.024788
66.4,3.06463,1.11865,-0.0250833
67,3.12744,1.12139,-0.0251668
67.6,3.18844,1.11778,-0.0249757
68.2,3.25095,1.11931,-0.0257581
68.8,3.31429,1.12423,-0.0270198
69.4,3.37515,1.12723,-0.0256904
70,3.43756,1.13378,-0.0270051
70.6,3.49879,1.13898,-0.0275952
71.2,3.56136,1.15119,-0.0255955
71.8,3.62096,1.15367,-0.027001
72.4,3.68424,1.15539,-0.0257462
73,3.74308,1.17267,-0.0269846
73.6,3.80736,1.17356,-0.0271192
74.2,3.86819,1.17436,-0.0269312
74.8,3.92969,1.18133,-0.028108
75.4,3.98962,1.18324,-0.0283172
76,4.05253,1.18547,-0.0269756
76.6,4.1113,1.19665,-0.0269263
77.2,4.17298,1.19846,-0.0282245
77.8,4.23201,1.1982,-0.0282803
78.4,4.29505,1.20555,-0.02832
79,4.3536,1.20911,-0.0283209
79.6,4.41571,1.20971,-0.0286458
80.2,4.47645,1.21297,-0.0296634
80.8,4.53604,1.22123,-0.0295751
81.4,4.59732,1.22595,-0.0283548
82,4.65659,1.22497,-0.0283248
82.6,4.71712,1.23811,-0.0296273
83.2,4.7774,1.23249,-0.0282228
83.8,4.83776,1.22774,-0.0296284
84.4,4.89641,1.22998,-0.0296406
85,4.95687,1.23885,-0.0309488
85.6,5.01556,1.2345,-0.0296299
86.2,5.07626,1.23933,-0.0298798
86.8,5.13495,1.24061,-0.02963
87.4,5.19463,1.25125,-0.0296455
88,5.25506,1.24442,-0.0296298
88.6,5.31314,1.24591,-0.0296229
89.2,5.37221,1.25286,-0.0297852
89.8,5.43125,1.25336,-0.030261
90.4,5.49005,1.26151,-0.0309507
91,5.54911,1.25503,-0.0297291
91.6,5.60793,1.25652,-0.0309465
92.2,5.66674,1.25394,-0.0309495
92.8,5.72602,1.25626,-0.0322763
93.4,5.78479,1.2591,-0.0322005
94,5.84407,1.25393,-0.0322702
94.6,5.90167,1.25378,-0.030992
95.2,5.95905,1.25689,-0.0309608
95.8,6.01786,1.25279,-0.0323117
96.4,6.07617,1.24653,-0.0309343
97,6.1363,1.24138,-0.0308847
97.6,6.19031,1.2447,-0.03227
98.2,6.25144,1.24177,-0.0323876
98.8,6.30977,1.24109,-0.0322734
99.4,6.36879,1.23915,-0.03227
100,6.42582,1.23437,-0.0325707
100.6,6.48421,1.24118,-0.0323078
101.2,6.54192,1.2375,-0.0322702
101.8,6.60007,1.23427,-0.0318605
102.4,6.65699,1.23934,-0.0322698
103,6.71256,1.23665,-0.0310587
103.6,6.77247,1.23741,-0.0313417
104.2,6.83053,1.23905,-0.032271
104.8,6.88599,1.2271,-0.0326419
105.4,6.94674,1.22772,-0.03227
106,7.00377,1.23088,-0.0322701
106.6,7.06281,1.23327,-0.0315237
107.2,7.11895,1.23456,-0.0322699
107.8,7.1773,1.23807,-0.03227
108.4,7.23573,1.23267,-0.0323692
109,7.29211,1.23918,-0.0322699
109.6,7.35035,1.23912,-0.0322696
110.2,7.40846,1.24231,-0.0334068
110.8,7.46679,1.23331,-0.0322712
111.4,7.52273,1.24111,-0.0322699
112,7.58021,1.24193,-0.0329835
112.6,7.63884,1.2406,-0.0335884
113.2,7.69667,1.24365,-0.0336005
113.8,7.75328,1.24442,-0.03358
114.4,7.81135,1.24327,-0.0335592
115,7.87014,1.25008,-0.0335845
115.6,7.92743,1.25043,-0.03358
116.2,7.98426,1.24843,-0.0335809
116.8,8.04232,1.25018,-0.0345603
117.4,8.09735,1.26182,-0.034901
118,8.15596,1.24786,-0.0349147
118.6,8.21457,1.24957,-0.0349105
119.2,8.27182,1.24999,-0.0336041
119.8,8.32917,1.24768,-0.0335908
120.4,8.38687,1.24445,-0.0349101
121,8.4445,1.25247,-0.0346277
121.6,8.5021,1.25706,-0.0348992
122.2,8.5599,1.24713,-0.0349
122.8,8.61615,1.26045,-0.0349
123.4,8.67404,1.2582,-0.0349
124,8.73251,1.26156,-0.0349016
124.6,8.78917,1.26446,-0.0362378
125.2,8.84603,1.25952,-0.0362332
125.8,8.90413,1.2585,-0.0372944
126.4,8.96254,1.25574,-0.0362202
127,9.01841,1.26145,-0.0350294
127.6,9.07575,1.26333,-0.03491
128.2,9.13291,1.26117,-0.03491
128.8,9.19058,1.25861,-0.0349035
129.4,9.24724,1.25643,-0.0344973
130,9.30417,1.26287,-0.0348999
130.6,9.36155,1.26207,-0.0359886
131.2,9.41865,1.26144,-0.0362199
131.8,9.47573,1.26059,-0.03622
132.4,9.53175,1.25861,-0.0362227
133,9.58996,1.26618,-0.0355994
133.6,9.64696,1.2639,-0.0363076
134.2,9.70515,1.26467,-0.0375399
134.8,9.76088,1.2694,-0.03754
135.4,9.81637,1.2674,-0.03754
136,9.87571,1.26882,-0.03754
136.6,9.9325,1.26887,-0.0367885
137.2,9.9884,1.26434,-0.0375007
137.8,10.0454,1.28176,-0.0375298
138.4,10.103,1.26863,-0.0362217
139,10.1595,1.28048,-0.0375229
139.6,10.2165,1.27516,-0.0362418
140.2,10.2736,1.27687,-0.03622
140.8,10.3311,1.27612,-0.0362357
141.4,10.3872,1.27309,-0.0368791
142,10.4442,1.27301,-0.0368793
142.6,10.5005,1.28017,-0.0368435
143.2,10.558,1.27766,-0.03688
143.8,10.6116,1.28081,-0.0368784
144.4,10.6708,1.27355,-0.0375005
145,10.7272,1.26864,-0.0368799
145.6,10.7846,1.27633,-0.03688
146.2,10.8385,1.27065,-0.03688
146.8,10.8982,1.28108,-0.0368802
147.4,10.9544,1.27742,-0.0362909
148,11.0109,1.2672,-0.0365556
148.6,11.066,1.27112,-0.03655
149.2,11.1236,1.27421,-0.0365538
149.8,11.1809,1.26969,-0.0368801
150.4,11.2374,1.2743,-0.0370038
151,11.2944,1.27262,-0.0365499
151.6,11.3512,1.27704,-0.03655
152.2,11.407,1.27924,-0.0365215
152.8,11.4646,1.27688,-0.0382032
153.4,11.5212,1.27609,-0.0381999
154,11.5784,1.27665,-0.0381507
154.6,11.6338,1.27735,-0.0381986
155.2,11.6906,1.27857,-0.0382
155.8,11.7472,1.2711,-0.0382007
156.4,11.8042,1.27643,-0.0395089
157,11.86,1.28381,-0.0384744
157.6,11.917,1.27698,-0.0381901
158.2,11.9734,1.27967,-0.0381944
158.8,12.0295,1.2826,-0.0368828
159.4,12.0867,1.28389,-0.0368858
160,12.1432,1.2858,-0.0382011
160.6,12.1989,1.28274,-0.0381907
161.2,12.2561,1.28643,-0.0391892
161.8,12.3125,1.29042,-0.03919
162.4,12.3695,1.29144,-0.03919
163,12.425,1.28624,-0.03919
163.6,12.4818,1.28345,-0.0392551
164.2,12.5389,1.28359,-0.037846
164.8,12.595,1.28461,-0.0391898
165.4,12.6515,1.28232,-0.0398304
166,12.7072,1.28258,-0.0391772
166.6,12.7646,1.29077,-0.039178
167.2,12.8205,1.28609,-0.0403842
167.8,12.8779,1.29101,-0.0405
168.4,12.9335,1.28625,-0.0405
169,12.9908,1.28069,-0.0404209
169.6,13.0467,1.28366,-0.0414899
170.2,13.1042,1.28433,-0.041492
170.8,13.1601,1.28379,-0.0401814
171.4,13.2159,1.28668,-0.04017
172,13.2738,1.28895,-0.0401439
172.6,13.3302,1.2898,-0.0405001
173.2,13.3876,1.29815,-0.0405
173.8,13.4432,1.28815,-0.0404309
174.4,13.5001,1.28841,-0.0418199
175,13.5563,1.29329,-0.0418197
175.6,13.6125,1.29637,-0.040484
176.2,13.669,1.29494,-0.0418183
176.8,13.7255,1.2935,-0.04182
177.4,13.7828,1.30253,-0.0418231
178,13.8402,1.29471,-0.0411658
178.6,13.8966,1.30205,-0.0411697
179.2,13.9517,1.29847,-0.0420295
179.8,14.009,1.30446,-0.04248
180.4,14.0636,1.30476,-0.04248
181,14.122,1.29924,-0.0424807
181.6,14.1792,1.30186,-0.0437891
182.2,14.2361,1.30344,-0.0424798
182.8,14.2911,1.30402,-0.04248
183.4,14.3484,1.29992,-0.0425013
184,14.404,1.30347,-0.0438014
184.6,14.4616,1.29856,-0.0438239
185.2,14.5176,1.29594,-0.04413
185.8,14.5747,1.29713,-0.0441476
186.4,14.6316,1.29962,-0.0454499
187,14.688,1.29947,-0.0454489
187.6,14.7446,1.30299,-0.044135
188.2,14.7989,1.30796,-0.04413
188.8,14.8564,1.30259,-0.0441022
189.4,14.9125,1.30436,-0.0467539
190,14.9687,1.29953,-0.04676
190.6,15.0254,1.3053,-0.04676
191.2,15.0818,1.31115,-0.04676
191.8,15.1384,1.30015,-0.0467731
192.4,15.1952,1.30541,-0.0493974
193,15.2502,1.30516,-0.0489321
193.6,15.3069,1.30059,-0.04808
194.2,15.3646,1.3024,-0.04808
194.8,15.4198,1.30116,-0.0480727
195.4,15.4774,1.30031,-0.0506969
196,15.5336,1.30329,-0.05071
196.6,15.5891,1.30012,-0.05071
197.2,15.6464,1.30338,-0.0507101
197.8,15.7027,1.30288,-0.0493501
198.4,15.7584,1.30199,-0.050578
199,15.8143,1.30155,-0.0507101
199.6,15.8698,1.30587,-0.049817
200.2,15.9281,1.3026,-0.0510031
200.8,15.9845,1.31255,-0.05105
201.4,16.0407,1.30928,-0.05105
202,16.0969,1.31905,-0.0510498
202.6,16.1532,1.30881,-0.0518757
203.2,16.2102,1.31116,-0.0519625
203.8,16.2659,1.31299,-0.053675
204.4,16.3234,1.30986,-0.0539482
205,16.3776,1.31592,-0.0537077
205.6,16.4352,1.31534,-0.0549902
206.2,16.4927,1.31906,-0.0551525
206.8,16.5487,1.32463,-0.0563105
207.4,16.6049,1.31753,-0.05631
208,16.6618,1.31843,-0.05631
208.6,16.7179,1.32117,-0.05631
209.2,16.7736,1.32129,-0.0563101
209.8,16.8309,1.31887,-0.0578468
210.4,16.8871,1.32068,-0.05895
211,16.944,1.32583,-0.058951
211.6,17.0005,1.32356,-0.0602656
212.2,17.0567,1.32757,-0.0616135
212.8,17.1125,1.32683,-0.0615796
213.4,17.1702,1.32673,-0.0626223
214,17.2254,1.3223,-0.0628998
214.6,17.2816,1.32371,-0.0618579
215.2,17.3386,1.31734,-0.0627899
215.8,17.3958,1.32542,-0.0632335
216.4,17.452,1.32463,-0.0645391
217,17.5082,1.31937,-0.0658227
217.6,17.5648,1.32599,-0.06586
218.2,17.6215,1.32791,-0.0658819
218.8,17.6776,1.32264,-0.067911
219.4,17.7331,1.32308,-0.0695326
220,17.7902,1.32419,-0.0694896
220.6,17.8469,1.32938,-0.0705929
221.2,17.9031,1.32923,-0.0711728
221.8,17.9608,1.32795,-0.072213
222.4,18.0161,1.32241,-0.0724499
223,18.0727,1.3192,-0.0729342
223.6,18.1296,1.31937,-0.0747611
224.2,18.1865,1.32008,-0.0760601
224.8,18.2421,1.31969,-0.0773925
225.4,18.2996,1.31586,-0.078173
226,18.3557,1.31141,-0.0787117
226.6,18.4115,1.31933,-0.0791241
227.2,18.467,1.31159,-0.0803142
227.8,18.5262,1.31462,-0.0816697
228.4,18.5826,1.31345,-0.0816752
229,18.6384,1.30809,-0.0844313
229.6,18.6959,1.31542,-0.0857314
230.2,18.7525,1.31577,-0.0868381
230.8,18.8094,1.32307,-0.0870004
231.4,18.8643,1.31819,-0.0883244
232,18.9209,1.31025,-0.0902319
232.6,18.9778,1.30679,-0.0896737
233.2,19.0345,1.31149,-0.0916489
233.8,19.0915,1.31572,-0.0939893
234.4,19.1472,1.31237,-0.0949428
235,19.2048,1.30382,-0.0962711
235.6,19.2603,1.30355,-0.0976111
236.2,19.3182,1.30515,-0.098906
236.8,19.3739,1.30719,-0.100564
237.4,19.4309,1.3076,-0.102784
238,19.4878,1.3071,-0.10425
238.6,19.5449,1.30052,-0.105491
239.2,19.6002,1.29941,-0.106823
239.8,19.6569,1.29658,-0.10812
240.4,19.7137,1.29341,-0.109454
241,19.7709,1.30083,-0.110842
241.6,19.8266,1.29952,-0.113552
242.2,19.8844,1.30629,-0.114828
242.8,19.9407,1.30392,-0.116143
243.4,19.9972,1.30189,-0.117499
244,20.0533,1.28845,-0.120253
244.6,20.1098,1.30261,-0.121507
245.2,20.1661,1.30064,-0.122881
245.8,20.2251,1.30144,-0.123715
246.4,20.2814,1.29829,-0.12512
247,20.3375,1.29785,-0.128836
247.6,20.3947,1.29014,-0.130399
248.2,20.4518,1.28488,-0.132223
248.8,20.5085,1.29277,-0.132859
249.4,20.5649,1.29326,-0.134705
250,20.6216,1.29458,-0.137342
250.6,20.6783,1.28667,-0.139148
251.2,20.7335,1.28548,-0.141719
251.8,20.7914,1.28113,-0.143077
252.4,20.8486,1.28737,-0.144313
253,20.9055,1.27788,-0.147791
253.6,20.9621,1.28156,-0.14984
254.2,21.018,1.2763,-0.151627
254.8,21.0742,1.28304,-0.153938
255.4,21.1318,1.27922,-0.155651
256,21.1891,1.27415,-0.157776
256.6,21.2462,1.27572,-0.159673
257.2,21.3014,1.27428,-0.161575
257.8,21.3594,1.27104,-0.164895
258.4,21.4161,1.27678,-0.167046
259,21.4726,1.27427,-0.16907
259.6,21.5291,1.26672,-0.172025
260.2,21.5863,1.26376,-0.173878
260.8,21.6433,1.26577,-0.176253
261.4,21.6998,1.27284,-0.179121
262,21.7567,1.26763,-0.181794
262.6,21.8139,1.27192,-0.184872
263.2,21.8703,1.26867,-0.187529
263.8,21.9266,1.25914,-0.189627
264.4,21.9838,1.26079,-0.192301
265,22.0395,1.2572,-0.194897
265.6,22.0972,1.25438,-0.196247
266.2,22.1511,1.25083,-0.198902
266.8,22.2109,1.25701,-0.201909
267.4,22.2666,1.24783,-0.2056
268,22.3252,1.25603,-0.209443
268.6,22.3818,1.25119,-0.210795
269.2,22.4379,1.24389,-0.212756
269.8,22.4944,1.24086,-0.215193
270.4,22.5515,1.23103,-0.21704
271,22.6088,1.22857,-0.220219
271.6,22.6663,1.22202,-0.222255
272.2,22.7237,1.21872,-0.225218
272.8,22.78,1.22162,-0.228391
273.4,22.8369,1.2194,-0.229549
274,22.8941,1.21287,-0.23195
274.6,22.9506,1.22411,-0.235065
275.2,23.0075,1.21476,-0.239303
275.8,23.0636,1.21364,-0.240722
276.4,23.121,1.20689,-0.243348
277,23.1777,1.19737,-0.245768
277.6,23.2349,1.1924,-0.247652
278.2,23.2914,1.19082,-0.251024
278.8,23.3488,1.18322,-0.252607
279.4,23.406,1.18252,-0.254762
280,23.4627,1.17821,-0.257469
280.6,23.5182,1.18502,-0.260833
281.2,23.5738,1.17802,-0.26325
281.8,23.6327,1.17164,-0.265374
282.4,23.6896,1.16262,-0.269352
283,23.7466,1.16199,-0.271604
283.6,23.8046,1.15513,-0.274271
284.2,23.8607,1.15345,-0.276341
284.8,23.9173,1.1465,-0.279371
285.4,23.9746,1.14001,-0.280668
286,24.0304,1.14473,-0.28378
286.6,24.0888,1.13574,-0.288366
287.2,24.1453,1.12067,-0.289593
287.8,24.2022,1.12292,-0.291441
288.4,24.2592,1.1154,-0.29406
289,24.3166,1.11462,-0.295858
289.6,24.3733,1.11039,-0.297785
290.2,24.4302,1.10282,-0.300141
290.8,24.4876,1.10485,-0.303333
291.4,24.5448,1.09092,-0.304639
292,24.6012,1.08427,-0.306375
292.6,24.6581,1.09205,-0.309269
293.2,24.7152,1.08524,-0.313446
293.8,24.7724,1.08148,-0.314749
294.4,24.8294,1.08356,-0.318115
295,24.8866,1.06876,-0.318261
295.6,24.9427,1.06831,-0.3208
296.2,24.9997,1.05772,-0.322674
296.8,25.0574,1.06038,-0.325071
297.4,25.1144,1.05122,-0.32674
298,25.1696,1.04638,-0.328715
298.6,25.2272,1.04129,-0.330091
299.2,25.2846,1.03559,-0.332764
299.8,25.3431,1.02037,-0.334649
300.4,25.3992,1.01329,-0.336353
301,25.4561,1.01029,-0.339786
301.6,25.5129,1.00622,-0.341355
302.2,25.5691,1.00209,-0.343771
302.8,25.6268,0.993815,-0.345251
303.4,25.6849,0.985713,-0.34525
304,25.7414,0.982737,-0.349649
304.6,25.7991,0.97085,-0.35087
305.2,25.8531,0.959362,-0.352306
305.8,25.9126,0.958622,-0.353607
306.4,25.9695,0.947119,-0.35485
307,26.0269,0.942804,-0.357142
307.6,26.0828,0.934389,-0.358993
308.2,26.141,0.929037,-0.360806
308.8,26.1984,0.923592,-0.363302
309.4,26.2546,0.907339,-0.364869
310,26.3114,0.904872,-0.365977
310.6,26.3699,0.892575,-0.368653
311.2,26.4264,0.882979,-0.369847
311.8,26.4826,0.879533,-0.372417
312.4,26.5406,0.864714,-0.373986
313,26.5972,0.855762,-0.375217
313.6,26.654,0.846981,-0.376545
314.2,26.7123,0.840865,-0.37959
314.8,26.7692,0.835649,-0.380873
315.4,26.8256,0.817757,-0.381927
316,26.8834,0.807221,-0.384466
316.6,26.9403,0.797206,-0.385831
317.2,26.9987,0.796005,-0.388116
317.8,27.0552,0.775568,-0.390051
318.4,27.112,0.776957,-0.391274
319,27.169,0.764791,-0.394439
319.6,27.2274,0.752255,-0.395626
320.2,27.284,0.739181,-0.397039
320.8,27.34,0.723079,-0.399681
321.4,27.3978,0.718585,-0.401599
322,27.4545,0.70927,-0.402902
322.6,27.5126,0.694784,-0.4054
323.2,27.57,0.680457,-0.406958
323.8,27.627,0.662317,-0.409886
324.4,27.6834,0.645035,-0.412229
325,27.7412,0.635944,-0.413834
325.6,27.7985,0.621239,-0.416718
326.2,27.8558,0.60615,-0.418419
326.8,27.9127,0.597893,-0.419374
327.4,27.9671,0.575761,-0.420233
328,28.027,0.55515,-0.423594
328.6,28.084,0.538221,-0.426794
329.2,28.1414,0.523779,-0.428939
329.8,28.1988,0.506732,-0.43072
330.4,28.2565,0.494164,-0.433344
331,28.3129,0.473855,-0.435595
331.6,28.3704,0.460552,-0.438813
332.2,28.4274,0.448686,-0.441525
332.8,28.4825,0.424429,-0.444631
333.4,28.5418,0.410412,-0.447515
334,28.5988,0.39277,-0.450227
334.6,28.6571,0.363057,-0.453794
335.2,28.7125,0.350191,-0.45607
335.8,28.7697,0.334814,-0.459347
336.4,28.8274,0.315618,-0.462513
337,28.8847,0.288072,-0.465948
337.6,28.9405,0.272469,-0.469143
338.2,28.9999,0.242219,-0.473061
338.8,29.0563,0.212054,-0.476312
339.4,29.1138,0.1979,-0.479069
340,29.1705,0.176752,-0.482941
340.6,29.2284,0.151737,-0.485616
341.2,29.2854,0.126368,-0.490187
341.8,29.3419,0.0904421,-0.494778
342.4,29.4001,0.0721341,-0.500527
343,29.4582,0.0454727,-0.504411
343.6,29.5142,0.028472,-0.507745
344.2,29.5711,0.0047476,-0.512545
344.8,29.63,-0.0172621,-0.517972
345.4,29.6867,-0.0499654,-0.52207
346,29.7447,-0.0724726,-0.526343
346.6,29.8023,-0.108944,-0.531843
347.2,29.8593,-0.131899,-0.53677
347.8,29.917,-0.164591,-0.542591
348.4,29.9751,-0.189276,-0.548899
349,30.0316,-0.214001,-0.553951
349.6,30.0881,-0.237416,-0.559052
350.2,30.1464,-0.265434,-0.566539
350.8,30.2039,-0.292754,-0.571816
351.4,30.2621,-0.303534,-0.580007
352,30.3184,-0.313094,-0.586387
352.6,30.3766,-0.330912,-0.593325
353.2,30.4334,-0.356908,-0.600597
353.8,30.4904,-0.381769,-0.606744
354.4,30.5483,-0.405887,-0.614313
355,30.606,-0.420624,-0.622541
355.6,30.6639,-0.442883,-0.63083
356.2,30.7211,-0.45123,-0.639973
356.8,30.7789,-0.473909,-0.64828
357.4,30.8358,-0.496935,-0.65619
358,30.8945,-0.511098,-0.668289
358.6,30.9518,-0.535267,-0.67799
359.2,31.0097,-0.546329,-0.686766
359.8,31.0674,-0.564753,-0.697006
360.4,31.1241,-0.569221,-0.70862
361,31.1822,-0.577825,-0.719555
361.6,31.2397,-0.584552,-0.731673
362.2,31.2961,-0.599577,-0.742127
362.8,31.354,-0.618568,-0.755358
363.4,31.4126,-0.62108,-0.768438
364,31.4708,-0.62296,-0.782312
364.6,31.5281,-0.617332,-0.794727
365.2,31.5846,-0.618217,-0.808392
365.8,31.6446,-0.623542,-0.8217
366.4,31.7018,-0.629086,-0.835822
367,31.7594,-0.633124,-0.850049
367.6,31.818,-0.61159,-0.866989
368.2,31.8756,-0.611607,-0.880856
368.8,31.9337,-0.592973,-0.898212
369.4,31.9913,-0.585794,-0.915427
370,32.0501,-0.577467,-0.931932
370.6,32.1073,-0.57239,-0.949272
371.2,32.1673,-0.550183,-0.966143
371.8,32.2242,-0.534287,-0.985679
372.4,32.2827,-0.517189,-1.00339
373,32.3403,-0.505475,-1.02205
373.6,32.399,-0.48322,-1.04153
374.2,32.4565,-0.469773,-1.06063
374.8,32.5142,-0.452707,-1.0807
375.4,32.5731,-0.429277,-1.10039
376,32.6319,-0.402162,-1.12285
376.6,32.6902,-0.381845,-1.14325
377.2,32.7479,-0.366836,-1.16583
377.8,32.8066,-0.340476,-1.18677
378.4,32.8642,-0.315549,-1.20808
379,32.924,-0.293686,-1.23077
379.6,32.9819,-0.272447,-1.2534
380.2,33.0376,-0.256119,-1.27454
380.8,33.0986,-0.244806,-1.29881
381.4,33.1564,-0.219015,-1.32006
382,33.2152,-0.185638,-1.34292
382.6,33.2727,-0.157184,-1.36579
383.2,33.3321,-0.135759,-1.38764
383.8,33.39,-0.108222,-1.40983
384.4,33.4485,-0.0844115,-1.43271
385,33.5061,-0.0603285,-1.45543
385.6,33.5641,-0.0402125,-1.47588
386.2,33.6224,-0.0208748,-1.49924
386.8,33.68,-0.00361235,-1.51964
387.4,33.7403,0.0246476,-1.54336
388,33.7982,0.0460427,-1.56437
388.6,33.8564,0.0632922,-1.58495
389.2,33.9143,0.0841538,-1.6063
389.8,33.9728,0.104277,-1.62729
390.4,34.0318,0.120127,-1.64819
391,34.0895,0.136306,-1.66882
391.6,34.1486,0.15442,-1.69055
392.2,34.2072,0.169768,-1.70825
392.8,34.2649,0.185626,-1.72731
393.4,34.3232,0.206346,-1.7461
394,34.3817,0.217253,-1.76545
394.6,34.4379,0.22181,-1.78289
395.2,34.498,0.240576,-1.80154
395.8,34.5583,0.23376,-1.81958
396.4,34.6156,0.246205,-1.83679
397,34.6735,0.248688,-1.85391
397.6,34.7302,0.275975,-1.86913
398.2,34.7885,0.279963,-1.8854
398.8,34.8495,0.296566,-1.90107
399.4,34.907,0.307066,-1.91634
400,34.9638,0.314096,-1.93028
400.6,35.0248,0.324733,-1.9461
401.2,35.0821,0.332392,-1.95848
401.8,35.1412,0.338021,-1.97425
402.4,35.1996,0.347109,-1.98692
403,35.2583,0.349823,-2.00074
403.6,35.3156,0.349574,-2.01282
404.2,35.3745,0.365221,-2.02487
404.8,35.4324,0.364385,-2.03815
405.4,35.4906,0.369591,-2.04994
406,35.5493,0.379815,-2.06199
406.6,35.6086,0.378162,-2.07253
407.2,35.666,0.38744,-2.08396
407.8,35.7256,0.387676,-2.09523
408.4,35.783,0.396373,-2.10464
409,35.8418,0.398424,-2.11552
409.6,35.9007,0.400402,-2.12834
410.2,35.9585,0.407,-2.13841
410.8,36.0169,0.408415,-2.14888
411.4,36.0758,0.417122,-2.15817
412,36.1344,0.426099,-2.16813
412.6,36.1931,0.426925,-2.1788
413.2,36.2515,0.430745,-2.18823
413.8,36.3088,0.425537,-2.19719
414.4,36.3679,0.434819,-2.20694
415,36.4266,0.445382,-2.21601
415.6,36.4853,0.451588,-2.22597
416.2,36.5435,0.456974,-2.23516
416.8,36.6022,0.46447,-2.24489
417.4,36.6595,0.463127,-2.25444
418,36.7195,0.473966,-2.26313
418.6,36.7778,0.480424,-2.27219
419.2,36.8366,0.488732,-2.28126
419.8,36.8947,0.488258,-2.29127
420.4,36.9544,0.498272,-2.30029
421,37.0125,0.503647,-2.30876
421.6,37.0707,0.504972,-2.31766
422.2,37.1294,0.506952,-2.32552
422.8,37.1877,0.516339,-2.3346
423.4,37.2465,0.521478,-2.34436
424,37.3059,0.530625,-2.3538
424.6,37.3634,0.532182,-2.36201
425.2,37.422,0.531177,-2.37202
425.8,37.4802,0.540385,-2.38003
426.4,37.5386,0.540262,-2.39036
427,37.5983,0.544923,-2.3976
427.6,37.6565,0.555722,-2.40745
428.2,37.7151,0.568305,-2.41837
428.8,37.7738,0.57476,-2.42616
429.4,37.8319,0.584474,-2.43494
430,37.8907,0.59154,-2.44352
430.6,37.9501,0.59398,-2.4537
431.2,38.0082,0.592989,-2.46397
431.8,38.0679,0.599349,-2.47366
432.4,38.1268,0.617328,-2.48326
433,38.1859,0.620386,-2.49206
433.6,38.2448,0.623121,-2.50296
434.2,38.3032,0.632411,-2.51223
434.8,38.3618,0.639625,-2.5223
435.4,38.4215,0.645049,-2.53268
436,38.4795,0.65199,-2.54176
436.6,38.5393,0.656306,-2.55311
437.2,38.5977,0.656638,-2.56238
437.8,38.6569,0.666412,-2.57264
438.4,38.7153,0.67306,-2.58351
439,38.7747,0.675113,-2.59313
439.6,38.8334,0.679734,-2.60415
440.2,38.8915,0.683922,-2.61447
440.8,38.9509,0.699363,-2.62619
441.4,39.0087,0.694273,-2.63556
442,39.068,0.706059,-2.64669
442.6,39.127,0.711402,-2.65628
443.2,39.1855,0.698612,-2.66624
443.8,39.2443,0.70986,-2.67866
444.4,39.303,0.723681,-2.68794
445,39.3622,0.735254,-2.69955
445.6,39.4211,0.733093,-2.70938
446.2,39.48,0.740739,-2.72248
446.8,39.5394,0.744942,-2.73346
447.4,39.5978,0.751265,-2.74318
448,39.6563,0.748513,-2.75347
448.6,39.7156,0.744606,-2.76626
449.2,39.774,0.761012,-2.77668
449.8,39.8322,0.767979,-2.78793
450.4,39.8918,0.770514,-2.80005
451,39.9507,0.76764,-2.8102
451.6,40.0097,0.780528,-2.82231
452.2,40.0673,0.778694,-2.83403
452.8,40.1265,0.779221,-2.84467
453.4,40.1846,0.777966,-2.85693
454,40.2441,0.774116,-2.86905
454.6,40.3038,0.779561,-2.88087
455.2,40.361,0.776713,-2.89028
455.8,40.4205,0.769532,-2.90233
456.4,40.4803,0.76783,-2.91489
457,40.5381,0.77945,-2.92653
457.6,40.5979,0.771505,-2.93801
458.2,40.6566,0.769713,-2.94971
458.8,40.7153,0.773466,-2.96248
459.4,40.7732,0.758404,-2.97341
460,40.8326,0.763204,-2.98465
460.6,40.8919,0.7519,-2.9976
461.2,40.9505,0.747912,-3.00907
461.8,41.0098,0.749205,-3.02048
462.4,41.0689,0.73666,-3.03143
463,41.1272,0.729166,-3.04415
463.6,41.186,0.729725,-3.0542
464.2,41.2454,0.717961,-3.06617
464.8,41.303,0.704176,-3.07574
465.4,41.3629,0.701712,-3.08811
466,41.4208,0.680928,-3.09918
466.6,41.4799,0.675814,-3.10921
467.2,41.5379,0.670345,-3.12098
467.8,41.5969,0.65378,-3.13136
468.4,41.6561,0.641635,-3.14132
469,41.7149,0.625236,-3.15104
469.6,41.7732,0.602855,-3.16091
470.2,41.8312,0.593555,-3.16947
470.8,41.8918,0.570638,-3.18053
471.4,41.9494,0.562284,-3.18938
472,42.0085,0.538383,-3.19844
472.6,42.0676,0.513518,-3.20616
473.2,42.1265,0.500311,-3.21315
473.8,42.1852,0.468085,-3.22231
474.4,42.2426,0.457743,-3.23062
475,42.3028,0.43447,-3.23764
475.6,42.3617,0.402705,-3.24593
476.2,42.4199,0.376706,-3.25163
476.8,42.4787,0.354087,-3.25747
477.4,42.5379,0.313443,-3.26273
478,42.5964,0.292598,-3.26957
478.6,42.6546,0.26206,-3.27529
479.2,42.7143,0.235566,-3.28089
479.8,42.773,0.215563,-3.28542
480.4,42.8326,0.187088,-3.29074
481,42.8912,0.155805,-3.29394
481.6,42.9495,0.127129,-3.2991
482.2,43.0085,0.108086,-3.30154
482.8,43.0675,0.0848275,-3.30507
483.4,43.1253,0.0613289,-3.30807
484,43.1849,0.0381925,-3.31247
484.6,43.2439,0.0209848,-3.31532
485.2,43.3031,0.00177753,-3.31664
485.8,43.3615,-0.0113487,-3.31727
486.4,43.4201,-0.0277689,-3.31856
487,43.4778,-0.0407918,-3.32092
487.6,43.5387,-0.0544075,-3.3223
488.2,43.5987,-0.0638947,-3.32371
488.8,43.6567,-0.0722599,-3.32372
489.4,43.7158,-0.0874627,-3.32498
490,43.775,-0.0990034,-3.32727
490.6,43.8344,-0.111422,-3.32893
491.2,43.8936,-0.122559,-3.3297
491.8,43.9513,-0.1299,-3.33021
492.4,44.0118,-0.135649,-3.33025
493,44.0695,-0.137975,-3.33283
493.6,44.1291,-0.146553,-3.33288
494.2,44.1875,-0.149384,-3.3342
494.8,44.248,-0.161958,-3.33422
495.4,44.3061,-0.165211,-3.33552
496,44.3639,-0.176156,-3.33684
496.6,44.4238,-0.177526,-3.33684
497.2,44.4833,-0.184602,-3.33684
497.8,44.5412,-0.190541,-3.33791
498.4,44.6009,-0.187474,-3.33684
499,44.6601,-0.201104,-3.33951
499.6,44.7192,-0.197052,-3.33949
500.2,44.7776,-0.199803,-3.33848
500.8,44.837,-0.197733,-3.33862
501.4,44.8965,-0.198162,-3.3398
502,44.9553,-0.20754,-3.3398
502.6,45.0149,-0.209784,-3.3398
503.2,45.0734,-0.209248,-3.3398
503.8,45.1334,-0.220637,-3.34111
504.4,45.1923,-0.220145,-3.34112
505,45.2516,-0.215859,-3.34112
505.6,45.31,-0.221162,-3.34155
506.2,45.3697,-0.21996,-3.34243
506.8,45.4267,-0.223859,-3.34243
507.4,45.4891,-0.225097,-3.34243
508,45.5483,-0.226206,-3.34243
508.6,45.6069,-0.232603,-3.34243
509.2,45.6659,-0.231331,-3.34375
509.8,45.7255,-0.236569,-3.34375
510.4,45.7849,-0.229669,-3.34375
511,45.8447,-0.231049,-3.34375
511.6,45.9038,-0.236817,-3.34375
512.2,45.963,-0.231294,-3.34474
512.8,46.0229,-0.23098,-3.34476
513.4,46.0826,-0.238597,-3.34347
514,46.1419,-0.240282,-3.34343
514.6,46.2011,-0.242731,-3.34439
515.2,46.2605,-0.240689,-3.34441
515.8,46.3204,-0.240748,-3.34574
516.4,46.3788,-0.244811,-3.34573
517,46.4397,-0.241514,-3.34607
517.6,46.4991,-0.242634,-3.34671
518.2,46.558,-0.243952,-3.34671
518.8,46.618,-0.244383,-3.34671
519.4,46.6775,-0.23836,-3.34671
520,46.7362,-0.235759,-3.34671
520.6,46.7969,-0.23938,-3.34679
521.2,46.8553,-0.236451,-3.34737
521.8,46.9149,-0.229697,-3.34737
522.4,46.9744,-0.233444,-3.34737
523,47.0341,-0.22818,-3.34737
523.6,47.0928,-0.23195,-3.34737
524.2,47.1522,-0.23802,-3.34736
524.8,47.2121,-0.230778,-3.34877
525.4,47.2703,-0.231878,-3.34738
526,47.331,-0.237974,-3.34738
526.6,47.3904,-0.226108,-3.34671
527.2,47.4504,-0.21797,-3.34672
527.8,47.5089,-0.216546,-3.34703
528.4,47.5686,-0.22092,-3.34804
529,47.6273,-0.220459,-3.34804
529.6,47.6878,-0.221887,-3.34705
530.2,47.7466,-0.221226,-3.34708
530.8,47.8056,-0.225156,-3.34737
531.4,47.8642,-0.22963,-3.3487
532,47.9251,-0.228886,-3.3487
532.6,47.9846,-0.223869,-3.3479
533.2,48.0441,-0.232913,-3.34738
533.8,48.1035,-0.23092,-3.34738
534.4,48.1627,-0.234475,-3.34804
535,48.2216,-0.240121,-3.34804
535.6,48.2812,-0.246523,-3.34804
536.2,48.3407,-0.251132,-3.34805
536.8,48.4003,-0.248827,-3.34837
537.4,48.4594,-0.257866,-3.34837
538,48.5178,-0.265939,-3.34886
538.6,48.5786,-0.264728,-3.34935
539.2,48.6377,-0.265804,-3.34938
539.8,48.6979,-0.272906,-3.35068
540.4,48.7576,-0.273469,-3.34935
541,48.8166,-0.284111,-3.34935
541.6,48.8767,-0.288221,-3.34935
542.2,48.9362,-0.289482,-3.34935
542.8,48.9958,-0.297659,-3.34935
543.4,49.0559,-0.299722,-3.34866
544,49.1152,-0.303242,-3.35001
544.6,49.1736,-0.306107,-3.35001
545.2,49.2349,-0.313024,-3.35002
545.8,49.2945,-0.312945,-3.34935
546.4,49.3542,-0.318517,-3.34935
547,49.4144,-0.318932,-3.34935
547.6,49.4732,-0.317422,-3.34935
548.2,49.5328,-0.315684,-3.34935
548.8,49.593,-0.328929,-3.35057
549.4,49.6527,-0.322156,-3.35067
550,49.7112,-0.324076,-3.35067
550.6,49.772,-0.327865,-3.35067
551.2,49.8309,-0.333241,-3.3493
551.8,49.8918,-0.336855,-3.34935
552.4,49.9511,-0.333567,-3.34934
553,50.0109,-0.336177,-3.35067
553.6,50.0702,-0.344406,-3.35067
554.2,50.1298,-0.348798,-3.35067
554.8,50.1899,-0.346326,-3.35067
555.4,50.2497,-0.352033,-3.35065
556,50.3088,-0.349852,-3.34935
556.6,50.3684,-0.347315,-3.34937
557.2,50.4283,-0.343868,-3.35067
557.8,50.4879,-0.35084,-3.35067
558.4,50.5477,-0.355584,-3.35067
559,50.6084,-0.359108,-3.35067
559.6,50.668,-0.364615,-3.35067
560.2,50.7276,-0.355959,-3.35067
560.8,50.7873,-0.358978,-3.35067
561.4,50.8458,-0.365666,-3.35067
562,50.9073,-0.35117,-3.35001
562.6,50.9667,-0.36437,-3.34936
563.2,51.0271,-0.364469,-3.35072
563.8,51.0854,-0.365848,-3.35198
564.4,51.1464,-0.367248,-3.34924
565,51.2056,-0.361889,-3.34937
565.6,51.266,-0.361478,-3.35197
566.2,51.3255,-0.373225,-3.35135
566.8,51.3853,-0.374424,-3.351
567.4,51.4455,-0.373811,-3.351
568,51.5061,-0.367031,-3.351
568.6,51.5654,-0.374577,-3.351
569.2,51.6244,-0.372537,-3.35067
569.8,51.6846,-0.379015,-3.35067
570.4,51.7447,-0.38198,-3.35067
571,51.8056,-0.382293,-3.35067
571.6,51.864,-0.384974,-3.35067
572.2,51.9245,-0.392836,-3.35068
572.8,51.9836,-0.388214,-3.35162
573.4,52.044,-0.390207,-3.35166
574,52.1038,-0.391955,-3.35166
574.6,52.1638,-0.395413,-3.35166
575.2,52.224,-0.395688,-3.35166
575.8,52.2835,-0.394899,-3.35034
576.4,52.3435,-0.397357,-3.35067
577,52.4031,-0.397033,-3.35067
577.6,52.4634,-0.398063,-3.35087
578.2,52.5232,-0.399591,-3.35199
578.8,52.5826,-0.391249,-3.35133
579.4,52.6419,-0.400908,-3.35133
580,52.7022,-0.396025,-3.35133
580.6,52.7619,-0.39733,-3.35133
581.2,52.8219,-0.405229,-3.35264
581.8,52.8819,-0.40381,-3.35127
582.4,52.9415,-0.403589,-3.35133
583,53.0018,-0.404004,-3.35225
583.6,53.0612,-0.403702,-3.35232
584.2,53.1208,-0.416891,-3.35234
584.8,53.1804,-0.403692,-3.35166
585.4,53.241,-0.393371,-3.35166
586,53.3004,-0.402716,-3.35166
586.6,53.3598,-0.409445,-3.35166
587.2,53.4198,-0.40274,-3.35198
587.8,53.4796,-0.40712,-3.35437
588.4,53.5395,-0.399684,-3.35448
589,53.6002,-0.402748,-3.35207
589.6,53.6598,-0.402257,-3.35199
590.2,53.7193,-0.404634,-3.35199
590.8,53.7793,-0.403043,-3.35198
591.4,53.8391,-0.405368,-3.35258
592,53.8983,-0.406364,-3.3533
592.6,53.9592,-0.41003,-3.35321
593.2,54.0182,-0.408548,-3.351
593.8,54.0782,-0.409327,-3.351
594.4,54.1381,-0.415029,-3.35207
595,54.1993,-0.416988,-3.35363
595.6,54.2579,-0.412561,-3.35363
596.2,54.3188,-0.415364,-3.35231
596.8,54.378,-0.413691,-3.35254
597.4,54.4383,-0.42089,-3.35363
598,54.4979,-0.415187,-3.35363
598.6,54.5583,-0.420207,-3.35363
599.2,54.6177,-0.416129,-3.35242
599.8,54.6782,-0.425197,-3.35226
600.4,54.7391,-0.424417,-3.3533
601,54.799,-0.422225,-3.35358
601.6,54.8588,-0.421201,-3.35496
602.2,54.9195,-0.424851,-3.35318
602.8,54.9797,-0.418046,-3.35227
603.4,55.0397,-0.4167,-3.35501
604,55.0996,-0.42073,-3.35495
604.6,55.1601,-0.426355,-3.35495
605.2,55.2193,-0.424566,-3.35496
605.8,55.2804,-0.423768,-3.35364
606.4,55.3404,-0.429545,-3.35364
607,55.4008,-0.426441,-3.35364
607.6,55.4612,-0.434284,-3.3546
608.2,55.5215,-0.436012,-3.35495
608.8,55.581,-0.437521,-3.35423
609.4,55.6409,-0.439788,-3.35432
610,55.6999,-0.438196,-3.35512
610.6,55.7617,-0.442353,-3.35645
611.2,55.8219,-0.445987,-3.35506
611.8,55.8812,-0.443101,-3.35506
612.4,55.9409,-0.448946,-3.35506
613,56.0023,-0.444069,-3.35506
613.6,56.0624,-0.443626,-3.35498
614.2,56.1232,-0.44327,-3.35453
614.8,56.1829,-0.440487,-3.35506
615.4,56.2435,-0.445068,-3.35506
616,56.303,-0.439841,-3.35506
616.6,56.3627,-0.446998,-3.35405
617.2,56.423,-0.450437,-3.35407
617.8,56.4836,-0.451992,-3.35375
618.4,56.5438,-0.451445,-3.35506
619,56.6036,-0.457487,-3.35506
619.6,56.6631,-0.451971,-3.35506
620.2,56.7235,-0.458479,-3.35578
620.8,56.7846,-0.450552,-3.35572
621.4,56.8438,-0.45332,-3.35572
622,56.9039,-0.44804,-3.35552
622.6,56.9641,-0.448456,-3.35473
623.2,57.024,-0.449695,-3.3547
623.8,57.0839,-0.445122,-3.35605
624.4,57.1435,-0.458003,-3.35605
625,57.204,-0.462642,-3.35605
625.6,57.2646,-0.464988,-3.35605
626.2,57.3245,-0.469196,-3.35605
626.8,57.3846,-0.463228,-3.35607
627.4,57.4455,-0.473886,-3.35474
628,57.5055,-0.469029,-3.35605
628.6,57.5649,-0.474582,-3.35573
629.2,57.6257,-0.468028,-3.35703
629.8,57.6859,-0.46395,-3.35703
630.4,57.7466,-0.469487,-3.35705
631,57.8061,-0.467208,-3.35637
631.6,57.8671,-0.467796,-3.35637
632.2,57.9267,-0.469251,-3.35637
632.8,57.9867,-0.472802,-3.35637
633.4,58.0463,-0.474214,-3.35635
634,58.1062,-0.470438,-3.35736
634.6,58.1668,-0.469053,-3.35736
635.2,58.2267,-0.468633,-3.35736
635.8,58.2879,-0.466081,-3.35768
636.4,58.3473,-0.463478,-3.35769
637,58.4066,-0.471141,-3.35704
637.6,58.4687,-0.470134,-3.35704
638.2,58.5287,-0.46799,-3.35704
638.8,58.5888,-0.475395,-3.35704
639.4,58.6489,-0.468688,-3.35639
640,58.7092,-0.471932,-3.35671
640.6,58.7689,-0.474712,-3.35671
641.2,58.8297,-0.471113,-3.35672
641.8,58.8892,-0.473051,-3.35572
642.4,58.951,-0.479932,-3.35572
643,59.0109,-0.471315,-3.35711
643.6,59.0711,-0.469199,-3.35572
644.2,59.1309,-0.483854,-3.35572
644.8,59.1916,-0.470845,-3.35572
645.4,59.2521,-0.473104,-3.35572
646,59.3107,-0.470562,-3.35572
646.6,59.3728,-0.471427,-3.35572
647.2,59.4334,-0.472175,-3.35572
647.8,59.4941,-0.474354,-3.35706
648.4,59.555,-0.47325,-3.35704
649,59.6145,-0.46967,-3.35572
649.6,59.6745,-0.465811,-3.35572
650.2,59.7349,-0.470254,-3.35572
650.8,59.7958,-0.471244,-3.35671
651.4,59.8567,-0.466407,-3.35703
652,59.9156,-0.465427,-3.35703
652.6,59.9762,-0.468681,-3.35703
653.2,60.0366,-0.469461,-3.35704
653.8,60.0976,-0.468434,-3.35748
654.4,60.1582,-0.480491,-3.35703
655,60.2183,-0.474904,-3.35835
655.6,60.2782,-0.476226,-3.35833
656.2,60.3391,-0.480104,-3.35606
656.8,60.3996,-0.482865,-3.35605
657.4,60.4586,-0.484935,-3.35605
658,60.5193,-0.481526,-3.35741
658.6,60.5808,-0.469543,-3.35737
659.2,60.6409,-0.467974,-3.35737
659.8,60.7014,-0.466556,-3.35737
660.4,60.7602,-0.473505,-3.35737
661,60.8221,-0.471716,-3.35737
661.6,60.8821,-0.46455,-3.35737
662.2,60.9423,-0.470021,-3.35737
662.8,61.0032,-0.475885,-3.3581
663.4,61.0635,-0.483855,-3.35737
664,61.1241,-0.47893,-3.35737
664.6,61.1846,-0.468603,-3.35737
665.2,61.2448,-0.471891,-3.35737
665.8,61.3037,-0.468101,-3.35607
666.4,61.3658,-0.464399,-3.35606
667,61.4251,-0.462358,-3.35638
667.6,61.4858,-0.468108,-3.3564
668.2,61.5466,-0.471197,-3.35638
668.8,61.6053,-0.471286,-3.35638
669.4,61.6659,-0.472002,-3.35765
670,61.727,-0.470962,-3.35901
670.6,61.7876,-0.46765,-3.35913
671.2,61.8491,-0.46452,-3.35802
671.8,61.9102,-0.469661,-3.3577
672.4,61.9696,-0.468491,-3.35891
673,62.0292,-0.466288,-3.35901
673.6,62.0901,-0.467891,-3.35901
674.2,62.151,-0.469751,-3.35863
674.8,62.2126,-0.472112,-3.35769
675.4,62.2726,-0.474735,-3.35769
676,62.3331,-0.474713,-3.35817
676.6,62.3926,-0.472501,-3.35901
677.2,62.4529,-0.466317,-3.35769
677.8,62.5138,-0.47169,-3.35834
678.4,62.5744,-0.478866,-3.35835
679,62.6346,-0.477159,-3.35835
679.6,62.6961,-0.482805,-3.35835
680.2,62.7564,-0.482988,-3.35835
680.8,62.8149,-0.483654,-3.35901
681.4,62.8775,-0.47817,-3.35901
682,62.9375,-0.474218,-3.35904
682.6,62.9993,-0.477668,-3.35868
683.2,63.0592,-0.477878,-3.35855
683.8,63.1194,-0.479574,-3.35769
684.4,63.1796,-0.486728,-3.35902
685,63.2408,-0.489142,-3.35902
685.6,63.3016,-0.480681,-3.35902
686.2,63.3615,-0.484451,-3.35902
686.8,63.4216,-0.485469,-3.35771
687.4,63.4828,-0.477231,-3.3577
688,63.543,-0.466968,-3.35901
688.6,63.6036,-0.472817,-3.35901
689.2,63.6618,-0.491102,-3.36033
689.8,63.7248,-0.48584,-3.36033
690.4,63.7849,-0.484723,-3.36036
691,63.846,-0.491957,-3.35805
691.6,63.9058,-0.492806,-3.35803
692.2,63.9672,-0.495372,-3.35885
692.8,64.0278,-0.493437,-3.35934
693.4,64.0877,-0.493243,-3.35934
694,64.148,-0.493576,-3.35869
694.6,64.2087,-0.494523,-3.35836
695.2,64.2694,-0.480076,-3.35862
695.8,64.3303,-0.478177,-3.35901
696.4,64.3909,-0.482855,-3.35901
697,64.4514,-0.478311,-3.35894
697.6,64.5115,-0.474952,-3.35967
698.2,64.5726,-0.480615,-3.35967
698.8,64.6331,-0.492104,-3.35967
699.4,64.6937,-0.492072,-3.35967
700,64.7531,-0.499533,-3.35967
700.6,64.8141,-0.498223,-3.35969
701.2,64.8756,-0.498659,-3.35934
701.8,64.9373,-0.493748,-3.35795
702.4,64.997,-0.486712,-3.35934
703,65.058,-0.489177,-3.35934
703.6,65.1181,-0.488962,-3.3597
704.2,65.1788,-0.49072,-3.36066
704.8,65.2398,-0.484502,-3.36145
705.4,65.2998,-0.485386,-3.36203
706,65.3607,-0.485997,-3.36066
706.6,65.4216,-0.488948,-3.36082
707.2,65.4832,-0.492736,-3.35803
707.8,65.5432,-0.487478,-3.35935
708.4,65.6034,-0.479632,-3.35935
709,65.6641,-0.478808,-3.35935
709.6,65.7259,-0.484555,-3.35935
710.2,65.7864,-0.487499,-3.36005
710.8,65.8478,-0.479504,-3.36
711.4,65.9074,-0.484296,-3.36
712,65.9688,-0.48693,-3.35955
712.6,66.0293,-0.489967,-3.35967
713.2,66.0894,-0.488991,-3.35967
713.8,66.1508,-0.490226,-3.36058
714.4,66.2124,-0.486623,-3.36066
715,66.2723,-0.494516,-3.36066
715.6,66.3339,-0.487491,-3.3603
716.2,66.3944,-0.491934,-3.35979
716.8,66.455,-0.49052,-3.35933
717.4,66.5161,-0.49416,-3.35901
718,66.5763,-0.492989,-3.35938
718.6,66.6372,-0.497537,-3.36068
719.2,66.6973,-0.5056,-3.36165
719.8,66.7588,-0.502251,-3.36165
720.4,66.8194,-0.50503,-3.36165
721,66.8805,-0.501782,-3.36064
721.6,66.9415,-0.499416,-3.36066
722.2,67.0019,-0.502006,-3.36202
722.8,67.0622,-0.494668,-3.36054
723.4,67.1232,-0.495194,-3.35956
724,67.1842,-0.494421,-3.36088
724.6,67.2455,-0.495647,-3.36087
725.2,67.3065,-0.489374,-3.36187
725.8,67.3676,-0.491588,-3.36162
726.4,67.4284,-0.495953,-3.36056
727,67.489,-0.499642,-3.36059
727.6,67.5501,-0.499164,-3.36187
728.2,67.6102,-0.509827,-3.36144
728.8,67.6718,-0.502142,-3.36056
729.4,67.7322,-0.503993,-3.36056
730,67.7951,-0.505151,-3.36187
730.6,67.8547,-0.506524,-3.36154
731.2,67.915,-0.499805,-3.3609
731.8,67.9764,-0.498734,-3.36055
732.4,68.0373,-0.500131,-3.36055
733,68.0968,-0.500452,-3.3612
733.6,68.1568,-0.495643,-3.36121
734.2,68.2185,-0.490542,-3.3612
734.8,68.2801,-0.490365,-3.34946
735.4,68.341,-0.488719,-3.33972
736,68.4016,-0.497562,-3.34222
736.6,68.4632,-0.496033,-3.34544
737.2,68.5233,-0.497375,-3.34673
737.8,68.5839,-0.500978,-3.34794
738.4,68.6442,-0.503499,-3.35082
739,68.7057,-0.50506,-3.3521
739.6,68.7655,-0.499678,-3.3521
740.2,68.8271,-0.508285,-3.3541
740.8,68.8884,-0.504126,-3.35407
741.4,68.9489,-0.505595,-3.35516
742,69.0102,-0.510243,-3.35638
742.6,69.07,-0.507888,-3.35768
743.2,69.1301,-0.508153,-3.3577
743.8,69.1916,-0.510268,-3.3583
744.4,69.2514,-0.515308,-3.35901
745,69.3127,-0.523885,-3.3603
745.6,69.3731,-0.52942,-3.36033
746.2,69.4335,-0.533944,-3.36201
746.8,69.4944,-0.542636,-3.36191
747.4,69.553,-0.542298,-3.36216
748,69.6154,-0.534759,-3.36131
748.6,69.6746,-0.550744,-3.36131
749.2,69.7362,-0.55259,-3.36264
749.8,69.7972,-0.55421,-3.36198
750.4,69.8584,-0.550613,-3.36218
751,69.9198,-0.56148,-3.36396
751.6,69.9792,-0.565004,-3.36395
752.2,70.0406,-0.563816,-3.36396
752.8,70.1013,-0.558628,-3.36461
753.4,70.1621,-0.556805,-3.36461
754,70.2232,-0.560273,-3.36532
754.6,70.2838,-0.55718,-3.36395
755.2,70.3436,-0.575116,-3.36395
755.8,70.405,-0.565826,-3.36305
756.4,70.4658,-0.56536,-3.36297
757,70.5269,-0.565101,-3.36397
757.6,70.5875,-0.557037,-3.36396
758.2,70.6489,-0.564325,-3.36396
758.8,70.709,-0.560044,-3.36396
759.4,70.7684,-0.560806,-3.36396
760,70.8314,-0.564941,-3.36392
760.6,70.891,-0.563517,-3.36395
761.2,70.9536,-0.56531,-3.36494
761.8,71.0125,-0.572126,-3.36494
762.4,71.0728,-0.573841,-3.36521
763,71.1342,-0.581202,-3.36527
763.6,71.1948,-0.571458,-3.36394
764.2,71.2567,-0.57985,-3.36527
764.8,71.3169,-0.572851,-3.36431
765.4,71.3779,-0.579929,-3.36296
766,71.4388,-0.569898,-3.36522
766.6,71.4997,-0.561645,-3.3656
767.2,71.5598,-0.563708,-3.3656
767.8,71.6207,-0.5605,-3.36695
768.4,71.6824,-0.569248,-3.36569
769,71.7421,-0.560928,-3.3656
769.6,71.8014,-0.552647,-3.36561
770.2,71.8647,-0.552144,-3.36558
770.8,71.9232,-0.559981,-3.36563
771.4,71.9865,-0.564063,-3.36593
772,72.0471,-0.560294,-3.36593
772.6,72.1074,-0.564331,-3.36593
773.2,72.1682,-0.566345,-3.36724
773.8,72.2293,-0.567685,-3.36488
774.4,72.2902,-0.568619,-3.36494
775,72.3505,-0.580297,-3.36494
775.6,72.4111,-0.57647,-3.36483
776.2,72.4716,-0.569642,-3.36725
776.8,72.5329,-0.572114,-3.36725
777.4,72.5937,-0.580492,-3.36744
778,72.6542,-0.571486,-3.36758
778.6,72.7148,-0.569601,-3.36757
779.2,72.7756,-0.577567,-3.36757
779.8,72.8364,-0.575813,-3.36757
780.4,72.8976,-0.587105,-3.36651
781,72.9591,-0.580301,-3.36626
781.6,73.0184,-0.584561,-3.36626
782.2,73.0794,-0.584797,-3.36492
782.8,73.1406,-0.593688,-3.3662
783.4,73.2023,-0.604623,-3.36626
784,73.2632,-0.588974,-3.36546
784.6,73.3237,-0.597647,-3.36493
785.2,73.3848,-0.594825,-3.36627
785.8,73.4464,-0.594028,-3.36564
786.4,73.5068,-0.584854,-3.3656
787,73.5681,-0.586486,-3.36642
787.6,73.6294,-0.592357,-3.36757
788.2,73.6896,-0.590814,-3.36626
788.8,73.7493,-0.595114,-3.36762
789.4,73.8108,-0.601241,-3.36757
790,73.8721,-0.602486,-3.36757